@ HyperIMU - ianovir
@ Date:Tue May 19 08:06:24 GMT+02:00 2020, Sampling Rate:100ms
@ chris dancing, Ed Sheeran - Shape of You

accelerometer_lsm6ds3_c.x,accelerometer_lsm6ds3_c.y,accelerometer_lsm6ds3_c.z,linear_Acceleration.x,linear_Acceleration.y,linear_Acceleration.z,rotation_Vector.x,rotation_Vector.y,rotation_Vector.z
-2.4642084,3.607564,9.405516,-0.49159998,-0.546,0.6831,0.056823,0.228259,0.725419
-1.4773469,1.817362,8.350027,0.1862,-1.6804999,-0.5079,0.053877,0.191564,0.704689
-1.5516821,1.1346408,12.516015,-0.7303,-0.7869,3.3595998,0.04725,0.102776,0.697549
-0.7070652,1.8998948,9.0987425,-0.727,-0.2732,-0.4062,0.06374,0.084993,0.696444
0.2916808,2.6492321,8.54164,0.0378,0.2714,-1.0244,0.094988,0.075799,0.684726
-0.049406745,3.1138604,8.388488,-0.3978,0.65139997,-1.3856,0.117004,0.075259,0.668772
0.44089705,2.480728,7.2491064,-0.2136,-0.1416,-2.0012,0.137616,0.05937,0.648282
0.99516433,2.3629334,7.4516077,0.4308,0.3536,-2.2679,0.153293,0.043824,0.63231
1.1761659,1.4787259,9.540377,-0.5907,-1.211,0.5388,0.159216,0.011169,0.619903
1.6263621,1.8828193,9.865672,-0.6186,-0.1103,0.8064,0.166043,-0.02341,0.617642
-0.50876784,-1.641187,9.880698,-4.904,-5.0593,0.0526,0.219328,-0.087055996,0.626234
2.7666917,-4.285238,7.1746373,-4.1008,-5.6692,0.6283,0.34864,-0.178851,0.691244
19.723875,-1.9235495,-2.848736,9.3626995,-1.3298999,-4.3103,0.592645,-0.25299,0.73449
15.823901,-1.7860553,-0.58095783,7.8101997,1.346,-1.5575999,0.632153,-0.238673,0.736101
4.2553678,-1.8598063,-1.4976306,-3.2428,0.53069997,-0.8825,-0.602497,0.244944,-0.759597
3.051075,-2.501577,0.9029492,-4.1312,2.4798,0.2165,-0.609802,0.277812,-0.74175197
11.747601,-3.6320806,0.8319659,2.1261,0.7977,-0.31129998,-0.594463,0.293583,-0.747666
9.328768,-5.8203425,0.88522255,0.5064,-0.22989999,0.3401,-0.599754,0.301893,-0.739522
6.905098,-3.7769394,-2.3303244,1.5266,5.861,-2.2059,-0.555922,0.399972,-0.712969
-5.354699,-10.90826,-0.5628289,-4.7356997,-0.7686,3.7884998,-0.578477,0.417164,-0.668863
4.7003927,-10.55999,0.9304251,5.0063,-1.3727,0.58809996,-0.47024798,0.503344,-0.630739
2.0544453,-6.5414762,0.0752354,0.5427,2.5825,-0.1732,-0.482036,0.518947,-0.610484
-0.65846294,-4.4690647,-3.3020256,-4.1179,5.1947,-2.3346,-0.492777,0.551034,-0.571967
-2.5935526,-10.272448,-0.94479984,-2.6339,-1.2534,0.38689998,-0.489258,0.609799,-0.429767
-1.6080225,-9.181228,-0.58135045,0.125,0.10569999,1.7779,-0.507527,0.590818,-0.415315
-0.3517657,-7.733099,1.1842296,0.91929996,2.3116,1.8362,-0.481756,0.553654,-0.446938
-3.3714957,-11.295058,-1.7833929,-2.1051,-1.6787,-2.0132,-0.473524,0.516842,-0.452478
-1.1475409,-8.976111,0.20957884,0.5943,1.1457,0.62329996,-0.481919,0.533888,-0.43915
-1.4678563,-9.532131,-2.0487854,-0.3044,0.112399995,-1.2964,-0.498904,0.522489,-0.429353
-1.6100624,-10.13072,-1.151726,-0.7967,0.1135,0.41689998,-0.540954,0.533972,-0.406422
-1.5774342,-10.299224,-1.6896073,-0.7398,-1.1237,-0.23169999,-0.541705,0.532201,-0.403266
-0.50190127,-7.9515176,-1.0561781,1.2484,2.0827,-0.0132,-0.498328,0.518647,-0.436123
-3.7963133,-12.053092,-3.8593764,-2.105,-1.9411999,-1.9707999,-0.478783,0.498275,-0.44969898
-0.7878935,-9.200898,-1.1358188,0.5358,0.5232,-0.9637,-0.487436,0.517946,-0.444581
-1.5601481,-8.081877,-0.4981759,-0.46289998,1.5761,0.8189,-0.52283,0.534232,-0.429255
-1.007279,-14.675854,-1.0721427,-0.86259997,-5.0854,1.1751,-0.544307,0.562266,-0.41215
0.14200489,-8.788722,-0.23172042,1.143,0.5528,1.0157,-0.498499,0.564611,-0.454642
-1.2614857,-10.046549,0.12774503,-0.37849998,1.1286,0.7115,-0.451194,0.539633,-0.497782
0.21253806,-9.657003,-0.3868168,1.5547999,0.0894,-0.36769998,-0.430466,0.552222,-0.500447
-0.5952847,-9.246627,-2.0057569,0.29389998,0.5564,-1.5841999,-0.437028,0.564565,-0.50318
-0.73703104,-7.3955355,-2.0318441,-0.0053,2.2896,-1.1159999,-0.473801,0.581472,-0.48082998
-0.10380301,-14.245098,-1.5078586,0.24489999,-4.5228,1.513,-0.514309,0.593403,-0.443763
-0.6235651,-8.404424,0.033557132,0.5972,0.71999997,1.5981,-0.516524,0.556944,-0.437111
-1.3923814,-8.275156,1.0306273,-0.2304,2.2054,0.853,-0.508151,0.493735,-0.443951
0.07588662,-9.275893,0.53234595,0.99729997,0.20629999,-0.1442,-0.5239,0.458445,-0.408223
-1.5480621,-9.111948,-1.8496165,-0.74259996,0.6956,-1.8693999,-0.549901,0.458575,-0.392801
-1.9828013,-7.257649,0.79487497,-0.74109995,2.3504,0.9978,-0.598363,0.472056,-0.352721
-1.3546585,-13.215333,-1.253106,-0.5158,-4.0364,0.5866,-0.61783,0.498692,-0.326841
-1.0754466,-8.040208,-0.37902126,0.1828,0.72389996,1.5758,-0.571625,0.516323,-0.369835
-0.3266266,-7.292384,-0.6047753,0.4191,2.3566,-0.065799996,-0.518836,0.533943,-0.413604
-0.81153864,-10.292893,-2.845729,-0.4218,-0.8056,-1.2866,-0.53727,0.586717,-0.397723
-3.6855958,-10.0611725,-5.776203,-2.8806999,-1.133,-2.8897998,-0.520813,0.610664,-0.416267
0.967947,-5.955433,-3.0903304,2.1118,3.4652,-0.5584,-0.476717,0.623511,-0.44236
0.24822125,-9.079454,-4.7610617,0.81189996,0.14729999,-1.8937,-0.459458,0.660184,-0.451228
-1.4840316,-11.724895,-2.55197,-0.8307,-2.7628,-0.3635,-0.471046,0.667891,-0.450587
-2.578469,-7.3375387,-0.30309635,-1.2399,1.464,1.681,-0.447191,0.631847,-0.48243
-0.091037124,-10.708211,-1.5446527,1.2774999,-0.6231,-0.93829995,-0.41767,0.590516,-0.500268
-1.0938532,-9.510852,-1.9522226,0.1566,0.19999999,-1.8682,-0.407583,0.581913,-0.505391
0.23576182,-7.6928573,-1.8130618,1.8066,1.7716999,-1.2113,-0.444066,0.588678,-0.478072
-1.4566898,-11.954623,-3.5074673,-0.6239,-1.7083,0.084,-0.513928,0.598048,-0.432965
-2.9741635,-13.140911,-3.5132134,-2.2352998,-2.9306,-0.051,-0.549276,0.565855,-0.397114
0.6834201,-7.368328,-0.012564771,2.0916998,2.6178,1.0841,-0.528242,0.522718,-0.404275
-2.9737039,-10.497655,-0.6880648,-1.6252999,-0.7202,-1.0310999,-0.509796,0.470673,-0.418909
0.12246821,-9.167532,-0.28456524,1.2645,0.3831,-0.8508,-0.517744,0.459955,-0.406697
-0.96143484,-8.49775,0.7692187,0.2038,1.0623,0.5907,-0.543161,0.467004,-0.387644
-1.5399984,-9.640751,0.84187794,-0.5532,0.2607,2.3609,-0.589732,0.475488,-0.354257
-0.9783474,-10.24431,-1.1859727,0.4484,-0.93899995,1.2045,-0.606605,0.493906,-0.33101
-0.7906324,-8.699735,-0.2124806,0.28489998,0.5177,0.80939996,-0.560689,0.495378,-0.372624
-1.8135216,-8.48462,0.44633666,-0.5683,1.5637,0.28309998,-0.499222,0.49519,-0.435373
-0.63612026,-9.922022,-1.6429204,0.4576,-0.6056,-2.8400998,-0.46353,0.506294,-0.461243
-1.6170917,-8.714281,-1.024747,0.0191,0.94119996,-0.91499996,-0.458324,0.54661,-0.46501
-0.8108778,-7.76725,-1.4956481,0.72749996,1.7579999,1.3966999,-0.481486,0.589395,-0.445793
-0.9851182,-10.45839,-3.2259665,0.884,-2.0314999,-0.98319995,-0.513789,0.632369,-0.398924
-1.9700354,-11.939146,-2.1553369,-0.77419996,-2.6424,0.2012,-0.484228,0.620712,-0.43237498
0.3516412,-7.983427,-1.2767894,1.4864999,1.8554,-0.4877,-0.436965,0.592192,-0.492134
-0.5899122,-10.881598,-1.6187773,0.0932,-0.7435,-1.1072999,-0.40772,0.590171,-0.507085
-0.84615874,-9.8712845,-2.3078284,0.6435,-0.2346,-1.8066,-0.40877,0.586767,-0.50289
0.7216986,-7.847015,-1.2418342,2.0066,1.5623,-0.5746,-0.45175698,0.589166,-0.467202
-1.4389151,-12.443021,-2.0107656,-0.0656,-2.2903,0.2445,-0.530481,0.588265,-0.411714
-2.664239,-12.360957,-2.073235,-1.3778,-1.8928,1.1251999,-0.577309,0.538878,-0.361839
-1.2791646,-8.0877,-0.54584926,0.4114,1.5658,0.6504,-0.574498,0.474464,-0.342842
-3.256689,-9.895102,-1.065324,-1.1732,0.113299996,-0.36569998,-0.563892,0.421756,-0.348142
-0.5586918,-9.35339,-0.35440886,0.93289995,0.1963,-0.1874,-0.567571,0.414492,-0.339321
-1.1710999,-8.467496,-0.7245525,0.0736,1.0899,-0.072399996,-0.579977,0.437531,-0.339787
-2.1679304,-10.937643,0.2381656,-1.1053,-0.0854,2.2461998,-0.610973,0.478786,-0.329379
-3.6563003,-10.893503,-3.4437718,-2.4276,-1.4949,-1.3711,-0.600668,0.505261,-0.338676
-0.84120756,-7.3202047,-0.3349488,0.87219995,2.3051999,1.2049,-0.551763,0.506942,-0.373136
-1.250367,-9.71072,-2.1626728,0.0687,-0.0534,-1.5281,-0.517908,0.50829,-0.411683
-0.2998594,-9.086933,-1.1640129,1.0702,0.3541,-0.086799994,-0.49576,0.539713,-0.438314
-0.20698352,-8.886501,-0.9482667,0.7837,0.7399,-0.1943,-0.486287,0.552373,-0.455736
-1.8773798,-9.046223,-1.6789674,-1.5301,0.8279,-1.1599,-0.510985,0.578579,-0.448512
0.50419015,-12.194224,-2.1845272,0.81689996,-2.7333999,0.0534,-0.510132,0.607446,-0.441807
-0.9035717,-7.56856,-0.5348551,-0.3369,1.6567999,1.0037,-0.486267,0.581997,-0.474962
-0.1416697,-8.465533,0.105373606,0.98499995,1.7082,1.0207,-0.45068,0.563852,-0.500228
-0.38820544,-9.955981,-3.0838754,1.4525,-0.3409,-1.9588,-0.446575,0.551992,-0.488249
0.012880805,-8.061143,-2.5491927,0.9147,1.6189,-1.7242999,-0.468528,0.567944,-0.474555
0.70982337,-10.552186,3.8139155,0.5207,-0.68759996,5.8124,-0.521631,0.601459,-0.426629
0.15516342,-14.080521,-3.1581914,1.1508,-4.877,-0.1586,-0.549822,0.60217,-0.371863
-0.6620925,-6.8000975,-0.97498596,0.8405,2.312,1.03,-0.532515,0.559416,-0.395085
-1.8497506,-8.297939,0.1654968,-0.1988,2.3428,1.6014,-0.511853,0.50857997,-0.412836
0.20253031,-9.953846,-1.0041282,1.9041,-0.56979996,-1.2091,-0.522072,0.475699,-0.378973
-1.1034589,-6.757165,-0.73092103,0.2616,2.7175,0.5275,-0.570978,0.482579,-0.34157
-3.405637,-9.716283,-3.7573164,-2.3848,-0.31469998,-0.4333,-0.652638,0.480591,-0.294206
-3.7142017,-12.822406,-3.940042,-2.7159,-3.8358,-0.2965,-0.68617797,0.464259,-0.258756
-2.084574,-6.737963,-2.923416,-0.8965,2.1401,-0.46429998,-0.664776,0.44654,-0.271606
-1.5354495,-6.8986626,-1.0834816,-0.5115,3.4608,1.3883,-0.644,0.435946,-0.288253
-4.3640265,-10.514012,-2.7431424,-3.5523,-2.2482,-1.3428,-0.652757,0.433522,-0.25884
-2.4056077,-6.7434893,-1.2320561,-0.5875,2.6021,1.0487,-0.616062,0.4939,-0.294958
-1.2633628,-8.228325,-4.361508,0.3001,1.4739,-1.2688999,-0.588479,0.55181,-0.330517
0.7151481,-15.381395,-5.3929486,1.4868,-7.3550997,-3.4368,-0.551678,0.61921,-0.34983
3.2235723,-10.035813,0.15855362,4.4491,-1.5329,2.5505,-0.505179,0.625567,-0.402536
-1.5487038,-5.377109,1.0266145,-0.50409997,4.5123,1.0828,-0.452571,0.58042,-0.483415
0.63583297,-14.637718,-2.3260055,1.2056999,-5.5655,-3.3363,-0.437269,0.568938,-0.47976398
-1.4345003,-9.090573,0.9937086,0.6846,0.1771,1.6435,-0.457827,0.572007,-0.452211
0.9676597,-6.7602296,-3.6504107,3.35,2.0702999,-4.0787997,-0.472465,0.605649,-0.441938
-5.8599043,-13.416322,-10.219688,-2.8731,-4.0954,-3.9013,-0.551905,0.626487,-0.347112
-1.9388533,-13.301246,-2.7180893,0.0836,-5.2741,1.1083,-0.593105,0.591386,-0.299323
-2.6890047,-1.9841228,-1.6323763,-0.8728,7.3792996,1.4649999,-0.59816897,0.521797,-0.328129
-3.8233676,-11.717071,-1.5949214,-2.3088,-2.1689,0.6185,-0.639875,0.456176,-0.290941
-2.2056344,-8.927519,-3.6415904,-1.4793,-0.1169,-1.699,-0.654239,0.456445,-0.266473
-2.2360313,-5.1969213,-0.29215005,-0.264,4.0003,2.9287,-0.642493,0.49449798,-0.26535
-2.8518102,-10.443977,-5.1137943,-1.2247,-1.087,-0.94449997,-0.633053,0.542297,-0.26772
-5.0668106,-13.459608,-4.6307693,-2.7437,-4.4576,-0.3392,-0.607672,0.580034,-0.26866
-0.876795,-5.8399177,-1.3184773,0.5025,2.4336,0.0792,-0.5263,0.584847,-0.363292
0.82373947,-8.836903,-0.21791066,3.0907998,1.1012,0.6458,-0.450587,0.58728,-0.433414
-0.11298717,-17.384605,-5.2116027,0.4908,-8.1839,-3.8906,-0.436968,0.597237,-0.447814
-3.3099647,-8.546419,-2.44833,-0.8236,0.1525,-0.100499995,-0.439214,0.597881,-0.446995
-0.674121,-6.2809296,1.5662484,1.0526,2.508,0.95379996,-0.499012,0.610017,-0.391705
-1.6348662,-12.919189,-3.227087,-0.1257,-5.0386,-0.1104,-0.55996,0.615072,-0.300196
-2.4573321,-9.38482,-3.6552947,-0.132,-0.5248,-0.6645,-0.581088,0.557183,-0.303339
-3.1635354,-5.5671797,-0.21588038,-1.2883999,3.9582,2.0851998,-0.610655,0.485712,-0.287404
-7.365723,-10.968614,-2.0737617,-5.7518997,-2.4113,0.3006,-0.66147697,0.429859,-0.22831699
-1.0926466,-5.4462247,-0.5813313,0.5894,3.7868998,1.6107,-0.668342,0.426547,-0.228745
-2.5608954,-7.7926574,-3.0702477,-0.87659997,1.647,0.3272,-0.67501,0.445585,-0.23760399
-4.191002,-13.154577,-6.0237446,-2.4802,-4.4103,-3.3298,-0.681461,0.454788,-0.224413
-1.7282879,-6.9124336,-0.014662092,-0.8394,1.0157,1.1922,-0.63215,0.467627,-0.262381
-0.40311652,-7.6980767,0.6474209,1.6625999,2.1685,1.8585,-0.576967,0.477352,-0.316596
0.115094066,-10.187682,-1.6152817,0.9156,-1.5257,-1.1007,-0.551508,0.495189,-0.356341
-1.960085,0.864958,9.136848,0.2138,-0.5388,0.0561,-0.081364,0.082125,0.989761
-1.3409253,1.776603,8.236332,-0.0072999997,0.5435,-1.4116,-0.059182,0.070874,0.98723
-1.52231,1.4296066,8.946375,-0.2174,-0.0981,-0.79319996,-0.05542,0.086508,0.979178
-1.5768595,1.3881294,9.240355,-0.3215,-0.0488,-0.3811,-0.051061,0.083428,0.974504
-1.37024,1.6401814,9.456024,-0.087699994,0.21229999,-0.092999995,-0.046631,0.084164,0.971525
-1.0311539,2.0841527,9.385032,0.33179998,0.3139,-0.50339997,-0.041428998,0.098066,0.967923
-1.5768499,2.3370569,9.733033,-0.3033,0.3155,0.0266,-0.041128,0.116899,0.965382
-0.7978629,2.3788023,9.294943,0.384,0.0042,-0.2699,-0.028568,0.130081,0.961815
-1.1856278,3.5824919,9.292472,0.2496,0.7999,-0.2421,-0.028777,0.152728,0.957388
-0.7503141,3.2754307,8.785179,0.0277,0.3994,-0.8777,-0.003273,0.154061,0.950992
-0.33366552,2.9280512,9.296178,0.2139,0.0341,0.2522,0.014793,0.152127,0.94712
-0.3091393,3.2911558,9.3478155,0.0773,-0.24039999,0.38509998,0.023656,0.145185,0.947223
-0.54436487,2.8491,9.588414,-4.0E-4,0.0594,0.1539,0.019437,0.141315,0.947598
-0.24463953,3.0128253,9.520724,0.057499997,0.0639,0.15609999,0.024421,0.144449,0.946473
-0.43259394,2.7932575,9.45362,-0.067099996,-0.0013,0.0442,0.024381,0.145474,0.944696
-0.7237959,3.0664456,9.257343,-0.4752,0.8699,0.29029998,0.022927,0.140633,0.94493
-0.5519497,2.770369,9.034596,-0.0026999998,-0.3125,-0.2172,0.023306,0.147921,0.943253
-0.69961447,2.677522,9.690359,0.0513,-0.1002,0.040999997,0.008133,0.143275,0.943506
-0.39027402,2.0132172,10.0276165,0.3672,-0.0633,0.50299996,-9.2099997E-4,0.116828,0.945914
-0.80843574,2.1372464,9.345441,0.043399997,0.1375,-0.2889,-0.006915,0.115623,0.946921
-0.61794347,1.4440293,10.3208475,0.3218,-1.102,0.894,-0.009889,0.137786,0.944492
-1.602286,3.4644768,8.640004,0.1114,-0.2385,-0.234,-0.023736,0.204941,0.93283397
-2.7631671,4.073514,8.338372,-0.5248,-0.30179998,-0.18249999,-0.045156,0.242187,0.920903
-3.1035461,4.6365824,8.112542,-0.51309997,0.8393,-0.5731,-0.061358,0.25693,0.917986
