@ HyperIMU - ianovir
@ Date:Thu May 21 15:07:17 GMT+02:00 2020, Sampling Rate:20ms
@ chris dancing, Ed Sheeran - Shape of You

timestamp,accelerometer_lsm6ds3_c.x,accelerometer_lsm6ds3_c.y,accelerometer_lsm6ds3_c.z,als_B.x,als_B.y,als_B.z,linear_Acceleration.x,linear_Acceleration.y,linear_Acceleration.z,rotation_Vector.x,rotation_Vector.y,rotation_Vector.z
1590066437245,0.0,0.0,0.0,0.0,0.0,0.0,0.0,0.0,0.0,0.0,0.0,0.0
1590066437267,0.0,0.0,0.0,0.0,0.0,0.0,0.0,0.0,0.0,0.0,0.0,0.0
1590066437286,-1.481034,5.3099084,7.1698484,240.0,2088.0,1411.0,0.1038,0.196,-0.1312,0.258196,0.046315,-0.157644
1590066437306,-1.8683679,4.946296,6.6723433,240.0,2088.0,1411.0,-0.5814,0.3308,-2.0458999,0.263202,0.02024,-0.188856
1590066437327,-1.0127473,4.1499753,7.8700285,240.0,2088.0,1411.0,-0.2933,-0.4014,-1.3277,0.25937,0.005616,-0.199472
1590066437348,-0.6491447,3.8637245,9.550432,240.0,2088.0,1411.0,0.0757,-0.42839998,0.6702,0.242029,-0.009797,-0.209239
1590066437369,-2.218726,4.089354,10.954957,240.0,2088.0,1411.0,-1.3138,-0.5652,1.9907,0.224207,-0.01523,-0.216245
1590066437392,-1.9175639,4.3902287,11.496669,240.0,2088.0,1411.0,-1.5049,0.26,2.3406,0.215791,-0.016592,-0.224907
1590066437414,-0.9067608,4.5122275,12.253744,240.0,2088.0,1411.0,-0.3513,0.6538,3.202,0.192062,-0.019295,-0.262066
1590066437433,-1.1227561,4.2501674,10.191331,240.0,2088.0,1411.0,-0.29389998,0.70059997,1.9307,0.187185,-0.020119,-0.267262
1590066437454,-2.1943815,4.445832,8.3659725,240.0,2088.0,1411.0,-1.1348,0.8328,-0.0738,0.18948899,-0.018062,-0.275273
1590066437473,-2.3905241,4.0702868,7.3837085,240.0,2088.0,1411.0,-1.5717,0.5099,-1.4692,0.194485,-0.01628,-0.288581
1590066437495,-2.1716177,3.7245734,6.583231,240.0,2088.0,1411.0,-1.2764,0.0796,-2.159,0.199264,-0.01461,-0.306222
1590066437516,-2.4609041,3.219828,5.5136166,240.0,2088.0,1411.0,-1.2494999,-0.3875,-3.0455,0.20626199,-0.011247,-0.341887
1590066437537,-1.9525864,3.5916471,6.9717145,240.0,2088.0,1411.0,-1.1618,-0.482,-3.1582,0.204466,-0.013007,-0.348034
1590066437558,-1.510703,4.0005198,9.681605,240.0,2088.0,1411.0,-0.705,0.14389999,-0.686,0.196465,-0.020608,-0.35812598
1590066437579,-0.8645558,4.1254683,9.727709,240.0,2088.0,1411.0,-0.0594,0.5384,0.6306,0.188384,-0.025752,-0.365914
1590066437600,-0.8882776,3.8460457,8.636527,262.0,2161.0,1406.0,0.1901,0.4587,-0.1275,0.185476,-0.024421,-0.374044
1590066437621,-1.4162756,3.397238,8.763151,262.0,2161.0,1406.0,-0.2148,0.0902,-0.516,0.186418,-0.020877,-0.378045
1590066437642,-1.9530843,2.995309,9.856344,262.0,2161.0,1406.0,-0.8215,-0.3909,0.57699996,0.18464,-0.018098,-0.384415
1590066437663,-2.0758686,2.6827412,10.944385,262.0,2161.0,1406.0,-0.9578,-0.53569996,1.2751,0.182224,-0.017591,-0.389845
1590066437682,-1.8724668,1.9733107,10.98748,262.0,2161.0,1406.0,-0.9264,-1.0652,2.1324,0.174251,-0.018982,-0.408984
1590066437703,-1.6730202,1.9892751,10.258349,262.0,2161.0,1406.0,-0.6767,-1.2246,1.2926999,0.170182,-0.021259,-0.422584
1590066437725,-1.3908588,2.345542,9.351522,262.0,2161.0,1406.0,-0.4969,-0.8707,0.3947,0.16610199,-0.023189,-0.437377
1590066437746,-1.0806085,2.9972436,8.447289,262.0,2161.0,1406.0,-0.1072,-0.0862,-0.76839995,0.160435,-0.024122,-0.455898
1590066437768,-0.9815269,3.2703645,8.008825,262.0,2161.0,1406.0,0.053999998,0.2996,-1.1531,0.158436,-0.02453,-0.458824
1590066437789,-1.1232828,3.2730463,8.023736,262.0,2161.0,1406.0,0.0077,0.3473,-1.3165,0.15621799,-0.024691,-0.460581
1590066437809,-1.199495,3.1137552,8.452126,262.0,2161.0,1406.0,-0.22459999,0.3091,-1.0376999,0.154808,-0.025022,-0.461203
1590066437830,-1.3333501,2.7981608,9.072052,262.0,2161.0,1406.0,-0.38459998,-0.0257,-0.3798,0.149657,-0.027128,-0.461697
1590066437851,-1.1730822,3.0964115,9.122244,262.0,2161.0,1406.0,-0.54829997,0.03,-0.2005,0.146413,-0.02898,-0.460362
1590066437873,-0.9509003,3.5525167,9.110368,262.0,2161.0,1406.0,-0.2429,0.583,-0.3315,0.142368,-0.032816,-0.454809
1590066437890,-1.0915931,3.2237544,9.124916,262.0,2161.0,1406.0,-0.3779,0.62939996,-0.2322,0.141357,-0.034321,-0.452251
1590066437911,-1.1360391,3.4164205,8.621951,262.0,2161.0,1406.0,-0.4736,0.5434,-0.4825,0.139925,-0.036334,-0.44623598
1590066437933,-1.4671668,3.4649365,8.409174,262.0,2161.0,1406.0,-0.7741,0.65059996,-1.1367999,0.13875,-0.035863,-0.43855
1590066437955,-1.0855502,3.6861608,8.988791,284.0,2276.0,1447.0,-0.5511,1.0107,-0.4394,0.135511,-0.035079,-0.429453
1590066437976,0.085836925,3.0923223,12.49079,284.0,2276.0,1447.0,0.2025,0.51989996,2.6327,0.127848,-0.037282,-0.417239
1590066437997,0.15976986,2.7716236,12.642467,284.0,2276.0,1447.0,0.6339,0.5178,3.4248998,0.12372,-0.036255,-0.408809
1590066438018,-0.5114111,1.4934934,11.402137,284.0,2276.0,1447.0,0.0506,-0.5729,2.2747998,0.122468,-0.031396,-0.400683
1590066438040,-0.12050496,1.3018999,10.482161,284.0,2276.0,1447.0,0.12799999,-1.2560999,1.2975,0.123054996,-0.022637,-0.391403
1590066438061,0.666134,2.725904,8.664194,284.0,2276.0,1447.0,1.2778,-0.2003,-0.2031,0.124506,-0.011948,-0.378381
1590066438080,0.31194535,3.372147,8.844268,284.0,2276.0,1447.0,1.3316,0.83599997,-0.9842,0.125663,-0.005068,-0.362653
1590066438104,-0.024909275,2.7400203,8.881147,284.0,2276.0,1447.0,0.76479995,0.7148,-0.2355,0.126297,-0.006428,-0.348111
1590066438124,0.2800737,2.3015652,8.347049,284.0,2276.0,1447.0,0.8596,-0.1178,-1.1538,0.13076,-0.008507,-0.330971
1590066438144,0.76379824,2.4003596,8.850147,284.0,2276.0,1447.0,1.3048999,-0.19479999,-0.75479996,0.13392,-0.008836,-0.319741
1590066438166,1.2343068,3.243406,8.794133,284.0,2276.0,1447.0,1.7807,0.33179998,-0.68369997,0.136212,-0.009149,-0.307659
1590066438185,1.0209835,3.1319892,9.815997,284.0,2276.0,1447.0,1.7006999,0.6482,-0.016999999,0.13772699,-0.012791,-0.296255
1590066438207,0.33625126,1.9306077,10.23775,284.0,2276.0,1447.0,0.7722,-0.33409998,1.0588,0.139728,-0.021512,-0.288043
1590066438228,0.7333248,1.5404581,10.283374,284.0,2276.0,1447.0,0.7051,-1.0521,0.8728,0.14331199,-0.031076,-0.282028
1590066438249,0.81841475,1.4626466,10.593261,284.0,2276.0,1447.0,0.5916,-1.7061,1.0373,0.146401,-0.038148,-0.275807
1590066438271,1.6651002,2.210327,10.27756,284.0,2276.0,1447.0,1.1511999,-1.2981,1.1811,0.148228,-0.041853,-0.266601
1590066438290,2.1510465,2.6657617,10.005762,284.0,2276.0,1447.0,1.785,-0.5441,0.8153,0.149179,-0.042598,-0.255793
1590066438315,2.8963904,2.8141065,8.830199,294.0,2347.0,1489.0,2.7452998,-0.3224,-0.3601,0.152357,-0.043845,-0.239378
1590066438332,3.59769,2.7220445,9.00375,294.0,2347.0,1489.0,3.3558,-0.38939998,-0.3558,0.155002,-0.048289,-0.23173
1590066438354,1.4152892,2.5711045,9.815174,294.0,2347.0,1489.0,1.3003,-0.6003,0.391,0.158454,-0.057711,-0.228087
1590066438377,2.3654616,2.4086626,9.206481,294.0,2347.0,1489.0,1.5371,-1.0043,0.1334,0.164782,-0.068195,-0.22568
1590066438397,2.3790035,2.807757,8.423281,294.0,2347.0,1489.0,1.8253,-0.9314,-0.36139998,0.172618,-0.075987,-0.22168
1590066438417,2.9920146,3.6667678,7.768342,294.0,2347.0,1489.0,2.0094,-0.28779998,-1.1033,0.178785,-0.079259,-0.216791
1590066438439,2.242572,3.860248,7.933312,294.0,2347.0,1489.0,2.2161999,0.1266,-1.4505,0.182121,-0.081635,-0.211344
1590066438458,1.490199,3.4664977,8.3892355,294.0,2347.0,1489.0,1.1753,0.0064,-0.9016,0.181961,-0.083165,-0.211519
1590066438480,1.511948,3.2964232,8.039126,294.0,2347.0,1489.0,0.5499,-0.50409997,-1.0069,0.181237,-0.088402,-0.21523
1590066438501,1.7680031,3.8660324,9.187107,294.0,2347.0,1489.0,0.7226,0.008599999,-0.0431,0.180448,-0.09348,-0.216713
1590066438521,1.9599222,3.9148455,10.003578,294.0,2347.0,1489.0,0.9037,0.1013,0.8111,0.17979799,-0.10014,-0.217587
1590066438543,2.1160147,4.585538,9.531949,294.0,2347.0,1489.0,0.8702,0.491,0.7176,0.180486,-0.10494,-0.218334
1590066438563,2.2052321,4.8589554,9.04559,294.0,2347.0,1489.0,0.9672,0.9891,0.34849998,0.182206,-0.107567,-0.21837
1590066438585,1.8196986,4.5222926,8.562757,294.0,2347.0,1489.0,0.78279996,0.7436,-0.2525,0.18336,-0.109554,-0.219289
1590066438604,2.0327826,4.56558,9.699562,294.0,2347.0,1489.0,0.5991,0.5948,0.2969,0.182321,-0.111342,-0.221992
1590066438626,2.1995244,4.540259,10.119849,294.0,2347.0,1489.0,0.93789995,0.7768,1.1931,0.180321,-0.11322,-0.22453
1590066438648,2.2958574,4.4854507,10.212218,279.0,2239.0,1427.0,0.84,0.6008,1.2909,0.1799,-0.113834,-0.227842
1590066438674,1.6336117,4.4978814,9.770843,279.0,2239.0,1427.0,0.7892,0.5688,1.0883,0.183671,-0.110699,-0.232747
1590066438693,1.3088814,4.0413933,9.131274,279.0,2239.0,1427.0,0.2217,0.1735,0.4238,0.18873,-0.107206,-0.237456
1590066438713,0.6236225,3.7193923,7.9914527,279.0,2239.0,1427.0,-0.039,-0.3198,-0.5642,0.194949,-0.103574,-0.242871
1590066438735,0.23906583,3.5565963,7.009696,279.0,2239.0,1427.0,-0.58989996,-0.67289996,-1.503,0.201237,-0.099342,-0.248583
1590066438755,0.64380085,4.088224,7.055109,279.0,2239.0,1427.0,-0.3317,-0.3708,-1.9023999,0.20616099,-0.094854,-0.253575
1590066438777,0.8406329,4.035638,7.151557,279.0,2239.0,1427.0,0.28759998,-0.2785,-1.6077,0.209958,-0.089129,-0.260872
1590066438796,0.70227677,3.8117988,6.842236,279.0,2239.0,1427.0,0.2127,-0.34919998,-1.7766,0.210539,-0.087110996,-0.263603
1590066438818,0.737146,3.64296,8.096118,279.0,2239.0,1427.0,0.35689998,-0.584,-1.0235,0.209175,-0.080981,-0.272363
1590066438840,0.3645124,3.3157206,9.159258,279.0,2239.0,1427.0,0.3041,-0.8099,0.191,0.20662,-0.077759,-0.279127
1590066438859,-0.07440221,2.7713747,9.436172,279.0,2239.0,1427.0,-0.3936,-1.3543999,0.50159997,0.204702,-0.075331,-0.286776
1590066438881,-0.31524932,2.8073738,8.974397,279.0,2239.0,1427.0,-0.31149998,-1.3043,0.403,0.202988,-0.073108,-0.294057
1590066438903,-0.63229907,2.685643,8.518015,279.0,2239.0,1427.0,-0.5581,-1.2176,-0.19309999,0.200732,-0.069686,-0.300582
1590066438923,-0.3166188,2.8128135,8.356397,279.0,2239.0,1427.0,-0.6587,-1.3909,-0.78059995,0.198001,-0.067042,-0.306436
1590066438946,0.094609275,3.2717342,7.6983256,279.0,2239.0,1427.0,0.0295,-0.7427,-1.2245,0.194993,-0.067396,-0.312785
1590066438965,0.3321907,3.6145742,7.143522,279.0,2239.0,1427.0,0.20619999,-0.57989997,-1.5800999,0.194402,-0.06814,-0.314572
1590066438987,-0.13239935,3.170967,7.535798,273.0,2215.0,1422.0,-0.1153,-0.63299996,-1.6429,0.190413,-0.070525,-0.319772
1590066439006,0.1703714,3.3683834,7.9466524,273.0,2215.0,1422.0,-0.0557,-0.5018,-1.1532999,0.185302,-0.073204,-0.323146
1590066439029,0.6704722,3.5019703,8.356424,273.0,2215.0,1422.0,0.3383,-0.30269998,-0.74799997,0.178804,-0.076748,-0.325815
1590066439049,0.85030556,3.5228477,8.907771,273.0,2215.0,1422.0,0.5092,-0.0676,-0.4508,0.171841,-0.080526,-0.32862
1590066439071,0.77194804,3.1106236,9.941664,273.0,2215.0,1422.0,0.3114,-0.3525,0.4375,0.164702,-0.084733,-0.332357
1590066439091,0.9445892,3.077708,10.630505,273.0,2215.0,1422.0,0.3405,-0.40449998,1.3860999,0.158439,-0.089852,-0.336838
1590066439112,0.6046796,3.4087782,10.813383,273.0,2215.0,1422.0,0.0219,-0.118599996,1.7504,0.154555,-0.096741,-0.341688
1590066439134,0.5154142,3.8796217,10.099959,273.0,2215.0,1422.0,-0.38689998,0.1286,1.4442999,0.153087,-0.105854,-0.346747
1590066439155,0.89198375,4.048825,9.478587,273.0,2215.0,1422.0,-0.4052,0.41979998,0.3358,0.152931,-0.11505,-0.351589
1590066439175,0.692767,4.170546,9.267581,273.0,2215.0,1422.0,-0.4005,0.6648,0.47739998,0.15014,-0.1257,-0.358437
1590066439196,-0.47676218,3.5946064,8.498516,273.0,2215.0,1422.0,-1.6051999,0.15169999,-0.4253,0.147621,-0.130469,-0.362437
1590066439216,-0.04123773,3.5462341,9.479354,273.0,2215.0,1422.0,-1.3662,-0.0946,0.162,0.143596,-0.134697,-0.364972
1590066439238,1.458088,4.1731706,10.327801,273.0,2215.0,1422.0,-0.93719995,0.4964,1.0763,0.138234,-0.140608,-0.366015
1590066439257,1.7626208,3.6635883,9.802044,273.0,2215.0,1422.0,-0.044299997,0.31469998,1.0824,0.133318,-0.149714,-0.36601
1590066439283,2.5500548,3.674956,8.092804,273.0,2215.0,1422.0,0.4069,0.1721,-0.8131,0.128646,-0.167307,-0.365012
1590066439303,3.28359,3.5668147,7.8523784,273.0,2215.0,1422.0,0.6063,0.1565,-0.79109997,0.126668,-0.173539,-0.364411
1590066439322,3.5208268,3.6898575,7.854734,273.0,2215.0,1422.0,1.0084,0.2446,-1.0071,0.11849,-0.191329,-0.362522
1590066439346,3.253835,2.6900005,8.162619,283.0,2269.0,1446.0,1.0108,-0.12709999,-0.93659997,0.11425,-0.196698,-0.361979
1590066439359,3.1589003,1.1754668,7.917548,283.0,2269.0,1446.0,1.1597999,-1.5769999,-0.6135,0.105302,-0.202801,-0.360912
1590066439383,2.5503037,1.5399314,8.105551,283.0,2269.0,1446.0,-1.2492,-1.8614999,-0.5929,0.095444,-0.208948,-0.359342
1590066439406,3.7774854,1.081595,6.62512,283.0,2269.0,1446.0,0.35529998,-1.4638,-2.0809,0.079881,-0.22252999,-0.349188
1590066439425,4.574372,1.0205524,6.6995606,283.0,2269.0,1446.0,0.532,-1.92,-1.8521999,0.067673,-0.233409,-0.33786
1590066439447,4.9201803,0.43591708,7.028179,283.0,2269.0,1446.0,0.79569995,-1.6809,-1.8474,0.052599,-0.248068,-0.32135
1590066439477,3.958238,-2.2754781,7.44478,283.0,2269.0,1446.0,-0.1617,-3.5221999,-0.8104,0.02807,-0.277291,-0.289896
1590066439494,2.622053,-2.9190202,6.817068,283.0,2269.0,1446.0,-2.6097999,-4.8364997,-0.9471,0.015416,-0.298282,-0.268125
1590066439514,4.7301574,-3.1250749,5.5453258,283.0,2269.0,1446.0,-1.7778,-4.7089,-1.9333999,0.005514,-0.324643,-0.240403
1590066439533,4.767133,-3.5790536,3.234423,283.0,2269.0,1446.0,-0.8667,-4.7465,-2.4399,3.45E-4,-0.360898,-0.205467
1590066439553,3.7090876,-6.1455517,-0.0743256,283.0,2269.0,1446.0,-3.7135,-6.0248,-6.1944,-0.001444,-0.382321,-0.185697
1590066439574,5.9434237,-8.416462,2.4051385,283.0,2269.0,1446.0,-2.6638,-8.968699,-3.8237,-0.017651,-0.456325,-0.109276
1590066439596,10.348276,-8.450967,2.156084,283.0,2269.0,1446.0,0.825,-8.2501,-1.255,-0.029342,-0.519756,-0.035925
1590066439616,12.47155,-8.413368,0.0072592194,283.0,2269.0,1446.0,2.3504,-7.6931,-2.6827,-0.02872,-0.573492,0.033587
1590066439637,15.93868,-6.3232975,-1.0299186,283.0,2269.0,1446.0,5.7258,-4.8936,-2.8794,-0.020718,-0.6283,0.121887
1590066439659,18.161552,-4.612104,-0.36379415,283.0,2269.0,1446.0,7.615,-2.9521,-1.8585,-0.012383,-0.666022,0.206613
1590066439682,23.23067,0.11229764,-0.016424224,219.0,1920.0,1302.0,11.7162,1.1601,-0.070199996,-0.007677,-0.686192,0.281265
1590066439702,21.87516,3.2802956,-2.0055559,219.0,1920.0,1302.0,14.1353,8.000299,-1.7418,0.002859,-0.694753,0.369438
1590066439721,21.01414,4.103882,-3.2370374,219.0,1920.0,1302.0,13.2568,8.743899,-2.7919998,0.008592,-0.693954,0.390535
1590066439742,21.01414,4.103882,-3.2370374,219.0,1920.0,1302.0,13.2568,8.743899,-2.7919998,0.008592,-0.693954,0.390535
1590066439763,21.01414,4.103882,-3.2370374,219.0,1920.0,1302.0,13.2568,8.743899,-2.7919998,0.008592,-0.693954,0.390535
1590066439792,21.01414,4.103882,-3.2370374,219.0,1920.0,1302.0,13.2568,8.743899,-2.7919998,0.008592,-0.693954,0.390535
1590066439803,21.01414,4.103882,-3.2370374,219.0,1920.0,1302.0,13.2568,8.743899,-2.7919998,0.008592,-0.693954,0.390535
1590066439825,11.236669,2.0303595,-2.8133116,219.0,1920.0,1302.0,3.2765,6.9982996,-4.3046,0.065517,-0.672483,0.42497098
1590066439846,7.6814995,0.33463278,-1.4735066,219.0,1920.0,1302.0,1.2781999,5.9542,-3.021,0.072708,-0.666845,0.412946
1590066439867,3.0125284,-4.9817395,-3.7047207,219.0,1920.0,1302.0,-3.6692998,2.1959,-1.8925999,0.097454,-0.665585,0.392977
1590066439888,4.988444,-5.600258,-7.7124515,219.0,1920.0,1302.0,-6.7681,-2.3271,-6.6187997,0.108854,-0.671975,0.387987
1590066439910,5.8702855,-3.0736954,-4.729851,219.0,1920.0,1302.0,-3.0425,0.31399998,-7.3072996,0.094143,-0.677542,0.381583
1590066439928,6.3495374,-4.2703176,4.023887,219.0,1920.0,1302.0,-3.6738,0.588,2.0873,0.073022,-0.688182,0.372205
1590066439949,5.9613996,-5.2219167,2.9430008,219.0,1920.0,1302.0,-3.1324,-0.1749,2.9926999,0.057947,-0.703013,0.372029
1590066439970,6.700595,-7.636421,5.9757457,219.0,1920.0,1302.0,-2.4387999,-2.5087,6.6952,0.048733998,-0.720753,0.382466
1590066439989,11.980355,-6.5695553,1.8420892,219.0,1920.0,1302.0,2.5714998,-1.8726,3.3446999,0.03487,-0.73063,0.398047
1590066440010,14.706605,-2.5887928,3.117423,219.0,1920.0,1302.0,7.2762,2.2912,2.9963999,0.011224,-0.730514,0.409916
1590066440031,14.131163,-4.0970345,2.737243,1.0,34.0,47.0,6.4104,3.6536,5.8406,-0.008402,-0.728163,0.41502
1590066440052,10.230232,-9.177636,-2.6898952,1.0,34.0,47.0,4.7553997,-1.4222,-3.3899999,-0.010949,-0.726315,0.419968
1590066440073,7.6592813,-8.568025,-1.8104379,1.0,34.0,47.0,0.4653,-3.3521,-1.4528999,-0.008185,-0.722741,0.420761
1590066440094,4.6167774,-9.200007,1.6196775,1.0,34.0,47.0,-0.74909997,-1.5107,0.3838,-0.001843,-0.719769,0.42159998
1590066440116,2.8104959,-9.841903,-0.15631264,1.0,34.0,47.0,-5.7743998,-4.4038997,0.7977,0.006796,-0.718767,0.426689
1590066440139,3.5290916,-9.763477,-0.6799628,1.0,34.0,47.0,-3.9629998,-3.4271,-0.2421,0.0025829999,-0.716691,0.447395
1590066440158,4.213211,-9.813813,-1.1321222,1.0,34.0,47.0,-3.4973998,-3.3688,-0.6986,-1.25E-4,-0.71755,0.456636
1590066440179,4.529715,-10.033074,-4.4807677,1.0,34.0,47.0,-2.182,-2.4572,-3.2358,-0.017649,-0.72056,0.486424
1590066440199,5.3430057,-8.13611,-0.94985646,1.0,34.0,47.0,-1.7421,-2.4680998,-2.9887998,-0.028001,-0.721683,0.495576
1590066440221,5.5386214,-5.031252,0.35009933,1.0,34.0,47.0,0.023,3.0495,0.36969998,-0.060839,-0.725362,0.522449
1590066440242,4.7843337,-5.093731,0.38424063,1.0,34.0,47.0,-0.0069999998,3.0909998,1.1486,-0.072437,-0.725821,0.531708
1590066440264,4.7843337,-5.093731,0.38424063,1.0,34.0,47.0,-0.0069999998,3.0909998,1.1486,-0.072437,-0.725821,0.531708
1590066440285,2.8360374,-6.9219627,-1.9463422,1.0,34.0,47.0,-1.071,2.3834999,-1.3003,-0.129323,-0.724206,0.560361
1590066440304,6.1926985,-7.341216,-2.4937623,1.0,34.0,47.0,-0.1566,2.5514998,-0.6892,-0.152088,-0.726102,0.572085
1590066440325,7.2587886,-20.17047,-1.6485324,1.0,34.0,47.0,6.2792,-5.2679996,-3.4707,-0.17194399,-0.726619,0.584744
1590066440349,7.7891808,-15.860159,0.41109398,1.0,34.0,47.0,6.2212996,-8.4182,1.3105,-0.189027,-0.730814,0.600749
1590066440368,3.7267377,-8.615496,0.40683234,1.0,34.0,47.0,3.8107998,0.044499997,2.2257,-0.20445,-0.73395,0.600092
1590066440389,0.37399346,-7.239233,-1.3369893,0.0,0.0,3.0,1.2019,1.8217,1.6445,-0.213101,-0.735824,0.596187
1590066440409,-1.2176911,-7.4042025,-2.502774,0.0,0.0,3.0,-1.5784999,2.4515,-0.276,-0.22651,-0.73866,0.587602
1590066440432,-2.2733424,-10.659867,-2.8984108,0.0,0.0,3.0,-2.9285998,-0.2534,-1.0741,-0.242943,-0.743109,0.576317
1590066440451,-1.450867,-11.574557,-0.55951536,0.0,0.0,3.0,-2.4471998,-1.9284999,0.6222,-0.250371,-0.746684,0.573293
1590066440472,-0.3643209,-11.583235,2.2721548,0.0,0.0,3.0,-1.0373,-2.2607,3.5928,-0.257527,-0.748239,0.57437
1590066440494,-0.021576546,-11.8889065,-0.55464077,0.0,0.0,3.0,0.1244,-2.0211,4.0601,-0.267569,-0.744255,0.578537
1590066440513,-0.6912443,-13.1319275,-1.0590608,0.0,0.0,3.0,-0.146,-3.4519,1.2329,-0.279362,-0.731656,0.590144
1590066440535,-1.2321712,-12.7080965,-2.503521,0.0,0.0,3.0,-0.63629997,-3.6294,-0.5122,-0.279249,-0.725879,0.599435
1590066440556,-0.6173593,-9.725813,-0.5087966,0.0,0.0,3.0,-0.018199999,-1.1737,0.7064,-0.275321,-0.722647,0.60894
1590066440578,0.07330088,-7.2406883,0.89919513,0.0,0.0,3.0,0.9647,1.7957,2.2633998,-0.269701,-0.718098,0.620467
1590066440597,-0.22032402,-6.677745,1.3465182,0.0,0.0,3.0,1.0353,2.9988,2.776,-0.261501,-0.709686,0.636057
1590066440620,0.0013120226,-6.8119154,0.84898394,0.0,0.0,3.0,1.221,2.9489,2.0123,-0.252985,-0.698283,0.653331
1590066440640,-0.2812708,-7.12298,-0.09860281,0.0,0.0,3.0,1.1769,2.669,0.8847,-0.246367,-0.686595,0.668734
1590066440663,-0.86200833,-7.4081964,-1.3363763,0.0,0.0,3.0,0.6795,2.4723,-0.6544,-0.241305,-0.677053,0.680608
1590066440683,-1.5048611,-8.630915,-1.7373668,0.0,0.0,3.0,0.1283,1.6679,-1.6327,-0.236092,-0.670458,0.689637
1590066440704,-1.9592327,-9.854735,-0.7521241,0.0,0.0,3.0,-0.48349997,0.10789999,-1.0244,-0.224511,-0.663598,0.702204
1590066440726,-1.8891497,-10.844153,-0.8490126,0.0,0.0,3.0,-0.3866,-0.907,-1.1802,-0.218673,-0.659169,0.709603
1590066440745,-2.241241,-12.051731,-2.687367,0.0,0.0,3.0,-0.42339998,-1.8831999,-1.7949,-0.220757,-0.65631497,0.712045
1590066440766,-2.0450602,-12.618008,-3.8809817,0.0,0.0,3.0,-0.615,-2.9162998,-4.134,-0.230402,-0.655465,0.70936
1590066440788,-0.31021193,-10.781732,-1.966358,0.0,0.0,3.0,0.60569996,-2.1994,-3.2194,-0.241262,-0.657758,0.703042
1590066440807,1.3769916,-8.53441,0.118024565,0.0,0.0,3.0,2.5453,0.3663,-0.7209,-0.246344,-0.660346,0.698633
1590066440830,2.099418,-7.8526754,2.0225163,0.0,0.0,3.0,3.7184,1.6481999,1.0356,-0.251871,-0.661712,0.69484
1590066440849,1.1992173,-8.596669,2.5024004,0.0,0.0,3.0,3.4257,1.5490999,2.6227,-0.260097,-0.66224897,0.690065
1590066440871,0.035204343,-9.738214,1.4490762,0.0,0.0,3.0,2.6841,0.5115,2.3653998,-0.266272,-0.662348,0.686394
1590066440892,-1.6208266,-9.7260895,0.13094369,0.0,0.0,3.0,0.2834,-0.037,0.528,-0.265015,-0.665725,0.683228
1590066440914,-2.6327984,-9.5946865,-2.3178267,0.0,0.0,3.0,-0.94229996,0.0084999995,-1.7648,-0.259543,-0.67056197,0.681329
1590066440937,-2.2337997,-8.920039,-2.8429518,0.0,0.0,3.0,-0.77309996,0.6493,-2.5228,-0.251442,-0.676497,0.679892
1590066440958,-0.934591,-8.705297,-3.0012372,0.0,0.0,3.0,-0.070999995,0.79789996,-2.3962998,-0.243935,-0.683604,0.67676
1590066440978,0.25597847,-8.221736,-1.9135705,0.0,0.0,3.0,1.3382,1.2343999,-1.7995,-0.243363,-0.692115,0.668353
1590066440997,1.555168,-7.608515,0.6082517,0.0,0.0,3.0,2.8185,1.9748,1.1745,-0.251523,-0.700799,0.65453
1590066441018,0.54915327,-8.637868,-0.6049286,0.0,0.0,3.0,2.3167999,1.6462,1.9271,-0.266398,-0.706604,0.638037
1590066441038,-0.65633684,-9.158942,-1.5959843,0.0,0.0,3.0,1.6728,1.004,0.90559995,-0.279976,-0.709579,0.623102
1590066441059,-3.6829526,-10.342664,-1.4545829,0.0,0.0,3.0,-1.8852999,0.0064,0.80759996,-0.283559,-0.714683,0.612246
1590066441082,-4.212732,-12.129093,-1.7282401,0.0,0.0,2.0,-3.2682,-1.2156,0.36069998,-0.280748,-0.723927,0.602462
1590066441102,-2.6077645,-12.868383,1.490381,0.0,0.0,2.0,-2.3046,-3.3878999,2.9420998,-0.272653,-0.738692,0.591473
1590066441122,0.018933348,-11.895534,1.3821726,0.0,0.0,2.0,-0.0989,-2.6682,5.1108,-0.26911598,-0.740039,0.593619
1590066441143,0.1024431,-13.557798,-2.7479784,0.0,0.0,2.0,1.0060999,-3.2354999,1.2889,-0.271152,-0.733957,0.600152
1590066441164,0.4442202,-11.947335,-2.264934,0.0,0.0,2.0,1.3663,-3.6783998,-1.2303,-0.274625,-0.728252,0.605962
1590066441185,-0.06187575,-8.6811075,-1.1827548,0.0,0.0,2.0,1.1255,-0.26139998,0.41259998,-0.274908,-0.725923,0.611224
1590066441206,0.14213896,-7.547127,0.3971406,0.0,0.0,2.0,1.3271999,1.8678,1.6091,-0.268483,-0.722469,0.62141
1590066441228,-0.36728013,-7.656322,1.5090845,0.0,0.0,2.0,1.3183,1.9504999,2.8109,-0.256203,-0.715665,0.637443
1590066441245,-0.6862836,-7.2789764,0.9273988,0.0,0.0,2.0,1.0655,2.1963,2.3372,-0.241916,-0.705791,0.656137
1590066441266,-1.421677,-6.8291826,0.21415655,0.0,0.0,2.0,0.5051,2.6573,1.3738999,-0.22889599,-0.695094,0.673497
1590066441288,-2.2006063,-7.1057897,-2.3477542,0.0,0.0,2.0,-0.2714,2.9563,-0.60179996,-0.217799,-0.685475,0.687915
1590066441310,-2.0659566,-8.645376,-2.7595856,0.0,0.0,2.0,-0.4511,1.4029,-2.9722,-0.202343,-0.674547,0.704974
1590066441331,-1.8721412,-9.821446,-1.3367403,0.0,0.0,2.0,-0.1431,0.2131,-2.0718,-0.190463,-0.670512,0.713568
1590066441353,-1.9964578,-11.228672,-1.0850043,0.0,0.0,2.0,-0.1195,-1.1723,-1.4174,-0.180368,-0.668352,0.719302
1590066441372,-2.4488564,-12.213197,-1.3061136,0.0,0.0,2.0,-0.4226,-2.4069998,-1.7619,-0.174373,-0.667276,0.722366
1590066441393,-2.3382638,-11.8334,-1.606538,0.0,0.0,2.0,-0.70339996,-2.5068,-1.874,-0.174435,-0.667849,0.721899
1590066441415,-0.87551165,-9.958231,-0.8630906,0.0,0.0,2.0,0.53709996,-0.89409995,-1.6671,-0.178404,-0.669828,0.718828
1590066441437,0.027226862,-8.680753,0.22393447,0.0,0.0,2.0,1.7666999,0.82979995,-0.1013,-0.187648,-0.67314297,0.712627
1590066441454,0.2778423,-8.469029,0.37579387,0.0,0.0,2.0,1.9472,1.087,0.1294,-0.191456,-0.67412597,0.710348
1590066441476,0.5537789,-8.555901,0.7256538,0.0,0.0,2.0,2.1901,1.169,0.49449998,-0.198448,-0.676262,0.705734
1590066441497,-0.4946708,-9.161748,-0.019862298,0.0,0.0,2.0,1.6317999,0.6053,0.36479998,-0.201768,-0.681094,0.699774
1590066441519,-2.0278122,-9.320378,-1.3282073,0.0,0.0,2.0,-0.058,0.33679998,-0.9389,-0.19809599,-0.68621,0.69605297
1590066441540,-2.3184972,-8.868641,-2.2209957,0.0,0.0,2.0,-0.72179997,0.60649997,-1.4290999,-0.190489,-0.69270897,0.692333
1590066441562,-1.73073,-8.57602,-2.6697648,0.0,0.0,2.0,-0.3432,1.0102,-2.3945,-0.181587,-0.700314,0.687755
1590066441581,-1.0621157,-8.29563,-0.23061907,0.0,0.0,2.0,0.2429,1.2183,-0.6227,-0.17683,-0.710268,0.679119
1590066441603,-0.9589544,-8.386142,1.597986,0.0,0.0,2.0,0.63729995,1.4139999,2.1884,-0.180843,-0.72137,0.665868
1590066441625,-3.3060381,-9.388641,1.8240849,0.0,0.0,2.0,-0.5683,0.69769996,3.1905,-0.193315,-0.729589,0.651579
1590066441645,-4.350686,-9.547674,0.71436274,0.0,0.0,2.0,-2.7524,0.0887,3.0282,-0.20919,-0.73323697,0.639376
1590066441669,-5.140897,-10.914495,-1.558022,0.0,0.0,2.0,-4.1974,-1.1377,0.29119998,-0.226998,-0.735065,0.626301
1590066441687,-2.667064,-12.442905,-0.22646275,0.0,0.0,2.0,-2.5084,-2.7093,1.1139,-0.231931,-0.739935,0.617898
1590066441708,-0.6835446,-11.834846,2.3583462,0.0,0.0,2.0,-0.1882,-2.4716,4.3773,-0.234273,-0.745519,0.611401
1590066441729,1.1455777,-10.762847,-0.22560084,0.0,0.0,2.0,1.8269,-1.4429,2.9078,-0.238776,-0.745816,0.60981
1590066441751,0.76760024,-12.098772,-1.4183443,0.0,0.0,2.0,2.2867,-1.9886999,1.0114,-0.245557,-0.740454,0.613058
1590066441771,-0.54792744,-12.900571,-2.3516617,0.0,0.0,2.0,1.0246,-3.4269,-0.325,-0.250054,-0.733417,0.619499
1590066441794,-0.637212,-10.0538845,-1.2237914,0.0,0.0,2.0,0.5367,-2.0644,0.1436,-0.249944,-0.72722,0.627715
1590066441814,-0.0413335,-7.4492908,-0.68681985,0.0,0.0,2.0,1.2515,1.2402999,0.64059997,-0.246436,-0.72141,0.636952
1590066441834,-0.44918096,-5.948643,0.92287856,0.0,0.0,2.0,1.3558999,3.4053998,1.6488999,-0.239217,-0.714388,0.648796
1590066441856,-0.43766963,-6.934374,0.77268547,0.0,0.0,2.0,1.2077,3.0228,1.7368,-0.223142,-0.699116,0.672407
1590066441874,-0.7881233,-7.497816,-0.68921405,0.0,0.0,2.0,0.9614,2.2484999,0.049,-0.213345,-0.687373,0.68813
1590066441896,-1.6174843,-7.5117793,-2.5783827,0.0,0.0,2.0,0.2832,2.2143,-2.1684,-0.205364,-0.678061,0.700191
1590066441918,-3.0497246,-8.825736,-2.8501918,0.0,0.0,2.0,-0.92179996,1.4854,-3.4413,-0.197151,-0.67281,0.708335
1590066441938,-3.741668,-10.660825,-1.0187137,0.0,0.0,2.0,-1.8733,-0.21759999,-1.9160999,-0.187479,-0.670564,0.714132
1590066441960,-3.9749973,-12.2956915,-0.6257007,0.0,0.0,2.0,-2.2914,-2.09,-0.96199995,-0.181035,-0.66871,0.718292
1590066441981,-2.7687125,-12.091054,-1.3542945,0.0,0.0,2.0,-1.7279999,-2.8044999,-1.5045999,-0.184009,-0.667401,0.718743
1590066442003,-0.08764693,-10.227704,-0.567196,0.0,0.0,2.0,0.40559998,-1.5346999,-1.5466,-0.19476,-0.667616,0.715036
1590066442023,0.8459289,-9.136072,1.0928094,0.0,0.0,2.0,2.6699,0.4218,0.79319996,-0.212053,-0.669309,0.707177
1590066442043,0.3396606,-8.495834,2.0230718,0.0,0.0,2.0,2.2491,1.1091,1.9386,-0.221113,-0.670411,0.702383
1590066442065,-0.3172413,-8.854276,1.4045535,0.0,0.0,2.0,1.854,1.0526,1.7150999,-0.22752,-0.671327,0.698611
1590066442082,-1.4798656,-9.334428,0.7708467,0.0,0.0,2.0,1.2766,0.6242,1.3549,-0.230655,-0.672222,0.696193
1590066442104,-2.9490628,-9.235585,-0.7417045,0.0,0.0,2.0,-0.8415,0.3741,-0.2634,-0.23592299,-0.675581,0.690282
1590066442125,-3.4603972,-8.892008,-0.8758948,0.0,0.0,2.0,-1.6948999,0.6027,-0.3953,-0.241556,-0.678598,0.684375
1590066442147,-2.6281726,-8.37714,-1.7286806,0.0,0.0,2.0,-1.3512,1.1363,-0.9629,-0.249659,-0.680862,0.677523
1590066442168,-0.32323638,-7.6678524,-1.9538888,0.0,0.0,2.0,0.4669,1.7544,-1.2277,-0.262804,-0.683252,0.667341
1590066442191,1.993173,-7.2180967,-1.0843436,0.0,0.0,2.0,2.8630998,2.3448,-0.7111,-0.280948,-0.686521,0.652348
1590066442210,1.3820002,-7.694428,0.32657868,0.0,0.0,2.0,3.0110998,2.1929,1.0282999,-0.302373,-0.690289,0.632238
1590066442232,0.37994063,-8.632246,-0.96640515,0.0,0.0,2.0,1.6286,1.4308,1.6255,-0.33308,-0.692051,0.601641
1590066442252,-2.3288302,-10.613362,-3.1425335,0.0,0.0,2.0,-1.1285,-0.7294,-1.0813999,-0.345537,-0.692434,0.585934
1590066442274,-3.1896992,-11.520477,-2.3602808,0.0,0.0,2.0,-2.7944999,-1.8657,-0.47379997,-0.349542,-0.69725,0.574131
1590066442292,-2.0616374,-12.325351,-1.0372831,0.0,0.0,2.0,-1.8081,-2.613,1.0646,-0.350435,-0.703902,0.5654
1590066442314,0.009423578,-12.756901,-1.3750762,0.0,0.0,2.0,-0.1735,-3.1727998,1.2311,-0.350424,-0.707087,0.561692
1590066442335,0.00566947,-12.919007,-0.9195458,0.0,0.0,2.0,0.62009996,-3.3932998,1.1557,-0.351879,-0.704347,0.562455
1590066442359,-0.51938856,-11.682124,-1.4282275,0.0,0.0,2.0,0.205,-2.8257,1.5274,-0.355171,-0.698377,0.56522
1590066442380,-1.1277456,-11.075884,-2.2671652,0.0,0.0,2.0,-0.634,-1.5408,-0.15439999,-0.35986,-0.688932,0.571404
1590066442401,-0.4505792,-10.419355,-2.2227864,0.0,0.0,2.0,-0.45069999,-1.2023,-0.502,-0.359206,-0.686201,0.575453
1590066442421,0.387152,-9.253236,-1.3213121,0.0,0.0,2.0,1.0804,0.2777,0.275,-0.35038,-0.678424,0.594399
1590066442441,0.32361946,-8.105704,-0.70061046,0.0,0.0,2.0,1.2215999,1.4289,0.5154,-0.338773,-0.673064,0.611559
1590066442461,-0.5028302,-6.973821,-0.59452814,0.0,0.0,2.0,0.92069995,2.0521,0.77559996,-0.33101898,-0.670425,0.621265
1590066442483,-1.1682938,-6.0742145,-1.1397166,0.0,0.0,2.0,0.2609,3.5902,-0.38369998,-0.30482998,-0.663336,0.649869
1590066442501,-2.1723166,-6.6214232,-1.1203331,0.0,0.0,2.0,-0.6053,3.434,-0.8303,-0.288702,-0.660918,0.664735
1590066442523,-2.591714,-7.7331758,-0.80461454,0.0,0.0,2.0,-1.29,2.2693,-0.6229,-0.274752,-0.659734,0.676375
1590066442544,-2.2934346,-8.811935,-0.9975298,0.0,0.0,2.0,-0.9192,1.2491,-1.0339,-0.264356,-0.65757,0.685858
1590066442567,-1.4477738,-10.157784,-0.39537847,0.0,0.0,2.0,-0.38599998,0.022,-0.7029,-0.260367,-0.654499,0.691863
1590066442589,-1.3548021,-11.252145,-0.24410322,0.0,0.0,2.0,0.3426,-0.8426,-8.0E-4,-0.267578,-0.651297,0.692002
1590066442609,-1.0335386,-12.184178,-3.0689454,0.0,0.0,2.0,0.1196,-1.9981999,-0.9952,-0.271373,-0.650471,0.690832
1590066442629,1.2877262,-10.337291,-2.732397,0.0,0.0,2.0,1.4424,-2.0225,-3.3214998,-0.27568,-0.648958,0.68999
1590066442649,2.48431,-8.729691,1.5214673,0.0,0.0,2.0,3.3502998,0.98819995,0.63629997,-0.307912,-0.627004,0.667745
1590066442671,1.7424905,-8.949182,2.426648,0.0,0.0,2.0,1.795,0.8718,1.8713,-0.337968,-0.594716,0.6313
1590066442691,0.7332769,-9.553574,-0.053965304,0.0,0.0,2.0,0.63769996,0.3346,0.22829999,-0.346492,-0.578433,0.609934
1590066442713,-1.1691078,-9.354816,-1.5090845,0.0,0.0,2.0,-1.324,0.2051,-1.992,-0.3419,-0.579686,0.602669
1590066442732,-2.4851813,-9.161653,-1.9875226,0.0,0.0,2.0,-2.9187,0.598,-2.783,-0.333091,-0.589197,0.603522
1590066442754,-2.5127912,-9.257966,-1.8116254,0.0,0.0,2.0,-3.5193,0.6012,-2.6246998,-0.326512,-0.599221,0.606521
1590066442775,-1.239373,-9.562222,-1.9647489,0.0,0.0,2.0,-2.9069998,0.27609998,-2.2674,-0.323746,-0.608343,0.608627
1590066442797,0.66337585,-9.084108,-0.9724481,0.0,0.0,2.0,-1.2136999,0.35169998,-1.969,-0.32449,-0.617908,0.607375
1590066442816,2.172901,-8.204392,-0.48153144,0.0,0.0,2.0,0.70309997,1.0445,-0.49859998,-0.329162,-0.627874,0.600081
1590066442839,0.98275274,-6.842418,-1.5762849,0.0,0.0,2.0,0.5902,2.6188998,-0.6591,-0.340004,-0.641706,0.578677
1590066442859,-0.52165824,-5.949103,-1.7701195,0.0,0.0,2.0,-1.1103,3.5767999,-0.99359995,-0.348523,-0.651819,0.559364
1590066442881,-2.038155,-6.5520105,1.6273677,0.0,0.0,2.0,-2.8379,3.4582,1.8422999,-0.353199,-0.664216,0.542126
1590066442901,-2.6108196,-9.124044,1.3031448,0.0,0.0,2.0,-3.6395,1.5266,3.7396,-0.349412,-0.676076,0.534657
1590066442923,-3.4912536,-13.653902,-0.48292008,0.0,0.0,2.0,-4.7155,-2.9775,1.5388,-0.342946,-0.685454,0.532596
1590066442943,-2.7006404,-16.41231,-2.398952,0.0,0.0,2.0,-4.1789,-6.3813,-0.0425,-0.339281,-0.694778,0.53147
1590066442967,0.29331845,-14.078183,-0.96460474,0.0,0.0,2.0,-1.1894,-5.2141,0.9618,-0.333631,-0.709386,0.535216
1590066442986,1.1737143,-12.728773,0.15420575,0.0,0.0,2.0,0.5852,-3.3465,2.3048,-0.327942,-0.712719,0.544626
1590066443006,0.33118513,-12.19116,0.24016716,0.0,0.0,2.0,0.1237,-2.7180998,2.3055,-0.322092,-0.710848,0.556617
1590066443028,-0.32746932,-11.345366,0.48133034,0.0,0.0,2.0,-0.5412,-2.0042,2.349,-0.314493,-0.707364,0.57024
1590066443048,-0.120897606,-9.126831,1.0750636,0.0,0.0,2.0,-0.3954,-0.2668,2.6475,-0.304122,-0.702849,0.585856
1590066443070,-0.21471201,-7.2011843,0.63494223,0.0,0.0,2.0,-0.1987,0.81909996,2.5997,-0.29791299,-0.699856,0.594649
1590066443091,-0.9886521,-5.705555,-0.2506825,0.0,0.0,2.0,-0.5243,3.4833999,1.2124,-0.27582,-0.687561,0.624292
1590066443112,-2.2840493,-5.101297,-2.528162,0.0,0.0,2.0,-1.6312,4.585,-1.0281,-0.258512,-0.678047,0.645017
1590066443133,-2.6345124,-6.4847145,-2.9988046,0.0,0.0,2.0,-2.2335,4.4404,-2.6157,-0.241479,-0.670313,0.66324997
1590066443153,-2.6678972,-8.167331,-2.3370569,0.0,0.0,2.0,-2.5697,2.4198,-2.952,-0.224559,-0.665626,0.678333
1590066443175,-1.4375074,-9.862971,0.00956723,0.0,0.0,2.0,-1.2587,0.0265,-0.5593,-0.200588,-0.662377,0.696549
1590066443195,-0.4915296,-10.542963,0.30323043,0.0,0.0,2.0,-0.60289997,-0.3405,-0.0896,-0.192146,-0.660831,0.703969
1590066443218,-0.21236569,-11.054336,-0.98756987,0.0,0.0,2.0,0.3405,-1.1069,-1.1848,-0.189189,-0.659391,0.708181
1590066443244,-0.7198407,-11.057467,-2.1778042,0.0,0.0,2.0,0.1603,-1.3866999,-2.4610999,-0.185314,-0.65892,0.711349
1590066443264,-0.43861774,-10.851901,-2.0524724,0.0,0.0,2.0,-0.0823,-1.183,-2.7696,-0.177011,-0.660267,0.714263
1590066443284,0.26969245,-9.983352,-1.239756,0.0,0.0,2.0,0.7163,-0.3848,-2.0046,-0.164012,-0.665126,0.715442
1590066443304,0.17441282,-9.161949,-0.7082815,0.0,0.0,2.0,0.7223,0.4249,-1.3564999,-0.159755,-0.668815,0.713574
1590066443324,-0.69978684,-8.71363,-0.6041146,0.0,0.0,2.0,0.0321,1.0489,-0.96019995,-0.157789,-0.672415,0.710666
1590066443346,-1.5266292,-8.811907,-1.3877176,0.0,0.0,2.0,-1.0328,1.0156,-1.4794999,-0.156056,-0.676542,0.707133
1590066443365,-1.3876601,-9.211518,-2.278265,0.0,0.0,2.0,-1.0897,0.6968,-2.3023,-0.152572,-0.682153,0.703153
1590066443386,-1.2143008,-9.552023,-2.097263,0.0,0.0,2.0,-0.877,0.3173,-2.1633,-0.145715,-0.690264,0.698217
1590066443408,-1.2484325,-9.16643,-1.423669,0.0,0.0,2.0,-0.8831,0.4136,-1.6133,-0.137997,-0.700856,0.690949
1590066443429,-1.5727894,-8.589553,0.122544825,0.0,0.0,2.0,-1.0807999,0.96159995,-0.1997,-0.132861,-0.712856,0.680936
1590066443450,-1.1861833,-7.780409,2.709432,0.0,0.0,2.0,-1.0782,1.6357,2.1632,-0.132229,-0.724437,0.669404
1590066443472,-1.5630498,-7.7521763,3.2749135,0.0,0.0,2.0,-0.9148,2.1087,4.3894997,-0.136411,-0.733276,0.658727
1590066443491,-2.7427592,-8.487234,1.6974794,0.0,0.0,2.0,-1.601,1.7344999,3.9204998,-0.142021,-0.73838997,0.651141
1590066443512,-3.6654942,-10.252968,0.94970316,0.0,0.0,2.0,-3.3945,-0.4057,2.5574,-0.145924,-0.745385,0.641939
1590066443533,-2.2304766,-12.3300905,-1.5172822,0.0,0.0,2.0,-2.2800999,-2.1487,0.5639,-0.145242,-0.750769,0.636665
1590066443553,-0.68872565,-13.142137,-0.9714138,0.0,0.0,2.0,-0.69479996,-3.4082,0.3157,-0.142348,-0.755205,0.633459
1590066443574,0.36473268,-12.847191,0.60965955,0.0,0.0,2.0,0.6943,-3.3207998,2.1911,-0.139973,-0.75672,0.633342
1590066443595,0.69160825,-12.602263,1.2161778,0.0,0.0,2.0,1.1638,-3.0237,2.8195,-0.140162,-0.75373,0.637196
1590066443617,1.10343,-12.156281,0.65986115,0.0,0.0,2.0,1.5795,-2.6722999,2.3918998,-0.141591,-0.747601,0.643874
1590066443636,1.4720318,-10.861018,0.67974263,0.0,0.0,2.0,1.9454999,-1.6473,1.8923999,-0.140881,-0.73969,0.652884
1590066443657,1.5801444,-9.012312,0.8644888,0.0,0.0,2.0,2.2129,0.1933,1.8196,-0.136595,-0.730149,0.66444397
1590066443678,0.70221937,-6.8447833,1.1665317,0.0,0.0,2.0,1.7628,2.0098,1.7967,-0.129988,-0.718827,0.678099
1590066443700,-0.80924016,-5.3192363,0.1163582,0.0,0.0,2.0,-0.0964,4.3493,0.3497,-0.11913,-0.699385,0.70013
1590066443721,-1.7879994,-5.6912956,-0.39079118,0.0,0.0,2.0,-1.0949,4.297,-0.61509997,-0.113871,-0.686417,0.713656
1590066443743,-2.1200752,-7.3994813,-0.2497727,0.0,0.0,2.0,-1.5761,2.8293,-0.99369997,-0.109085,-0.674118,0.726026
1590066443760,-2.306871,-9.3687315,-0.3249123,0.0,0.0,2.0,-1.8217,0.7456,-1.229,-0.105105996,-0.663543,0.73643297
1590066443781,-2.466296,-10.975269,-0.43684605,0.0,0.0,2.0,-1.8669,-0.94329995,-1.3614,-0.103389,-0.656425,0.743218
1590066443802,-4.280928,-13.619254,-7.941826,0.0,0.0,2.0,-3.2487998,-3.0435998,-6.2183,-0.103152,-0.653309,0.746176
1590066443823,-0.7177051,-14.01808,-7.408656,0.0,0.0,2.0,-2.2709,-5.2228,-11.9002,-0.094263,-0.654116,0.747644
1590066443844,2.2019665,-11.144875,0.75230604,0.0,0.0,2.0,2.0245,-2.4654,-3.672,-0.074292,-0.660497,0.746008
1590066443866,2.5691893,-9.029559,4.4641137,0.0,0.0,2.0,3.3127,0.0713,3.1984,-0.069906,-0.667971,0.740238
1590066443887,0.6821368,-8.378672,3.4785645,0.0,0.0,2.0,2.5513,1.4081,3.4959998,-0.094589,-0.672534,0.732182
1590066443909,-1.0671724,-8.858642,2.2556446,0.0,0.0,2.0,-0.3145,0.8526,1.833,-0.142827,-0.672727,0.71916
1590066443931,-2.5780475,-7.977892,1.8821394,0.0,0.0,2.0,-1.5137999,1.7124,1.6026,-0.156725,-0.67242,0.714003
1590066443950,-2.9283288,-8.451198,-2.8932204,0.0,0.0,2.0,-2.3075,1.6103,-1.2048,-0.154321,-0.673611,0.712928
1590066443973,-2.570166,-9.085957,-5.4346557,0.0,0.0,2.0,-2.2849,0.76949996,-6.2971,-0.142786,-0.67568,0.714655
1590066443992,-2.0803027,-9.051289,-2.2924674,0.0,0.0,2.0,-1.5749999,0.7066,-3.4429998,-0.130526,-0.682215,0.712606
1590066444013,-1.1355028,-8.314929,-1.384605,0.0,0.0,2.0,-1.0531,1.2219,-1.7541,-0.134262,-0.692485,0.702004
1590066444034,-0.12160629,-7.544867,1.0061105,0.0,0.0,2.0,0.1621,2.0678,0.4799,-0.157839,-0.70218,0.68468
1590066444055,0.994197,-7.0099735,2.2967672,0.0,0.0,2.0,1.441,2.8146,3.2805,-0.190789,-0.707009,0.665812
1590066444076,-2.1038136,-7.9715614,1.4619187,0.0,0.0,2.0,0.016099999,2.2970998,1.9188,-0.227121,-0.705514,0.64707
1590066444099,-1.7139037,-7.1718984,5.3100805,0.0,0.0,2.0,-1.6284,2.6218,6.3447,-0.246968,-0.706399,0.632281
1590066444118,-1.0012361,-10.230329,-4.1052227,0.0,0.0,2.0,-0.55689996,0.5962,-0.055499997,-0.256175,-0.712419,0.621045
1590066444139,-1.0950791,-13.768709,-3.7415435,0.0,0.0,2.0,-1.0256,-3.6741,-3.108,-0.26517,-0.7223,0.60673
1590066444161,1.4840603,-14.350903,3.0581808,0.0,0.0,2.0,0.92389995,-4.8554997,4.8223,-0.272964,-0.732708,0.59344697
1590066444178,2.9160993,-13.774485,-0.04672524,0.0,0.0,2.0,3.2679,-4.2613997,2.9426,-0.283928,-0.731724,0.58829
1590066444201,1.5344247,-14.682289,-2.2884355,0.0,0.0,3.0,2.4865,-5.0888,-0.422,-0.299456,-0.724781,0.584154
1590066444222,1.1386727,-14.450387,-0.62393856,0.0,0.0,3.0,1.8113999,-4.8141,1.4146,-0.309938,-0.721502,0.580872
1590066444243,0.97819424,-14.169776,-0.64157903,0.0,0.0,3.0,1.6064,-4.8889,1.4262999,-0.31597,-0.718947,0.581239
1590066444264,0.5559623,-12.772425,0.21973984,0.0,0.0,3.0,1.4482,-3.8802998,2.1908998,-0.318303,-0.714067,0.586635
1590066444285,-0.19168936,-10.756487,0.47759536,0.0,0.0,3.0,0.9752,-2.1587,2.4772,-0.318855,-0.706849,0.595174
1590066444306,-0.90736413,-9.56202,-0.6457449,0.0,0.0,3.0,0.0897,-0.0046,1.0952,-0.317621,-0.692791,0.611143
1590066444327,-1.7054378,-8.437359,-2.8993113,0.0,0.0,3.0,-0.5898,0.9439,-1.0749999,-0.316603,-0.682603,0.622164
1590066444348,-2.1188972,-7.2735753,-3.6452966,0.0,0.0,3.0,-0.94589996,2.0592,-2.4413,-0.316834,-0.674271,0.631104
1590066444369,-2.1632283,-5.7743163,-3.00728,0.0,0.0,3.0,-1.0777,3.3990998,-2.2970998,-0.319784,-0.669041,0.636031
1590066444388,-1.2876592,-4.3251734,-1.9571353,0.0,0.0,3.0,-0.3047,4.992,-1.26,-0.325358,-0.665505,0.637913
1590066444410,0.15872599,-3.7488506,-1.3818374,0.0,0.0,3.0,1.196,5.8863,-0.5406,-0.332816,-0.661566,0.638526
1590066444431,1.1097796,-4.6999903,-1.2545425,0.0,0.0,3.0,2.4665,5.449,-0.2814,-0.341304,-0.65701,0.638247
1590066444454,0.6694475,-8.250303,-1.3465565,0.0,0.0,3.0,2.7605999,3.1913998,-0.491,-0.348525,-0.653446,0.637234
1590066444474,-0.1949359,-10.873641,-1.3747602,0.0,0.0,3.0,2.0955,0.6112,-0.26639998,-0.352092,-0.653028,0.635815
1590066444496,-1.6411295,-13.442466,-2.3070145,0.0,0.0,3.0,1.0978999,-2.1158,-0.49699998,-0.350573,-0.65748,0.634054
1590066444515,-3.3386185,-13.76598,-3.7795634,0.0,0.0,3.0,-1.2925999,-4.3911,-2.3104,-0.347284,-0.660751,0.633979
1590066444537,-3.438562,-10.893273,-4.869777,0.0,0.0,3.0,-1.8884,-2.2855,-3.7222998,-0.345026,-0.662697,0.634093
1590066444557,-3.1598387,-9.617701,-4.2427263,0.0,0.0,2.0,-1.5259999,-0.3577,-3.2563999,-0.345548,-0.663749,0.632844
1590066444579,-2.5316384,-8.033208,-3.448522,0.0,0.0,2.0,-1.1740999,0.99369997,-2.4436998,-0.349287,-0.664004,0.62926
1590066444597,-1.7008697,-7.034873,-3.0023289,0.0,0.0,2.0,-0.3645,2.2807999,-1.8212999,-0.354801,-0.663515,0.6242
1590066444619,-0.5680962,-6.3080993,-2.4335816,0.0,0.0,2.0,0.6957,3.1676,-1.2408,-0.359459,-0.663341,0.61909
1590066444642,-0.13369223,-6.1745887,-1.8597393,0.0,0.0,2.0,1.2451,3.4262998,-0.73139995,-0.36216798,-0.664483,0.614065
1590066444663,-0.57303786,-6.470579,-1.5739961,0.0,0.0,2.0,1.1724,3.3759,-0.1656,-0.364623,-0.667162,0.607592
1590066444683,-1.8287008,-7.3161917,-1.6274443,0.0,0.0,2.0,-0.56259996,2.3467999,0.1663,-0.369741,-0.673628,0.594029
1590066444703,-2.3352468,-7.6256566,-1.7472885,0.0,0.0,2.0,-1.2585,1.9383999,0.2355,-0.373557,-0.679313,0.583094
1590066444725,-2.086681,-7.4445977,-1.671689,0.0,0.0,2.0,-1.1882,2.0604,0.51199996,-0.377459,-0.685297,0.571673
1590066444745,-1.7607342,-7.4490795,-1.265441,0.0,0.0,2.0,-0.9474,2.1912,1.0848,-0.380825,-0.690496,0.561521
1590066444766,-1.7568077,-8.574967,-1.9046832,0.0,0.0,2.0,-0.9866,1.3599,0.89839995,-0.383284,-0.694191,0.553392
1590066444787,-1.8225908,-10.196274,-2.9001062,0.0,0.0,2.0,-1.1761999,-0.2588,0.0197,-0.384532,-0.697237,0.546664
1590066444806,-2.2354276,-11.707282,-4.1086416,0.0,0.0,2.0,-1.5544,-1.8556,-1.0297999,-0.384847,-0.701345,0.539925
1590066444828,-2.602593,-13.165504,-4.108556,0.0,0.0,2.0,-2.1355,-3.388,-1.3712,-0.384123,-0.70713097,0.533665
1590066444850,-2.0802166,-14.186574,-3.953823,0.0,0.0,2.0,-1.8783,-4.5982,-1.0113,-0.382264,-0.712958,0.530229
1590066444869,-1.3227198,-14.322315,-3.5889754,0.0,0.0,2.0,-1.0617,-5.1015,-0.5506,-0.378648,-0.716974,0.531424
1590066444891,-1.3442868,-13.2738285,-3.692606,0.0,0.0,2.0,-0.43699998,-4.5189,-0.519,-0.373745,-0.718573,0.536225
1590066444913,-1.9475011,-11.674999,-3.9021466,0.0,0.0,2.0,-1.2221999,-2.5238,-1.0015,-0.365712,-0.717068,0.546998
1590066444932,-1.8263258,-10.481537,-3.8608418,0.0,0.0,2.0,-1.0892,-1.3026,-1.1247,-0.358884,-0.71439,0.557357
1590066444954,-1.427356,-9.105341,-3.5432844,0.0,0.0,2.0,-0.5913,0.029,-1.1085,-0.350273,-0.711187,0.570112
1590066444975,-1.16476,-7.64391,-3.1774216,0.0,0.0,2.0,-0.1809,1.5271,-0.9149,-0.341862,-0.708152,0.582439
1590066444996,-1.4990767,-5.8273144,-2.6076496,0.0,0.0,2.0,-0.1804,3.1438,-0.5442,-0.333942,-0.705149,0.594055
1590066445015,-1.634397,-4.7264223,-2.4750779,0.0,0.0,2.0,-0.2992,4.3715997,-0.5548,-0.326657,-0.702142,0.604651
1590066445037,-1.4080013,-4.015871,-2.1367004,0.0,0.0,2.0,-0.12459999,5.3355,-0.42839998,-0.320483,-0.699603,0.613545
1590066445058,-0.9730802,-4.1674147,-1.9295255,0.0,0.0,2.0,0.44439998,5.5705,-0.2694,-0.314713,-0.698009,0.62142
1590066445080,-0.43035296,-5.7330885,-1.9355013,0.0,0.0,2.0,1.1776,3.9650998,-0.2374,-0.30879,-0.699674,0.625804
1590066445099,0.5050521,-7.4149575,-2.0610342,0.0,0.0,2.0,1.685,3.1813,-0.31149998,-0.306314,-0.700918,0.62692
1590066445120,0.75920135,-9.543288,-1.8304342,0.0,0.0,2.0,2.6557,0.20179999,-0.144,-0.295389,-0.706329,0.630201
1590066445142,-0.33717063,-11.763354,-1.845623,0.0,0.0,2.0,1.9556999,-1.8277999,-0.13409999,-0.28387,-0.71033597,0.633732
1590066445163,-2.2250562,-12.300211,-1.807785,0.0,0.0,2.0,0.3295,-2.855,-0.24399999,-0.272054,-0.713122,0.637776
1590066445184,-4.098825,-11.331048,-2.4452748,0.0,0.0,2.0,-1.7708,-2.2052999,-0.47,-0.262618,-0.714539,0.641166
1590066445206,-4.491139,-10.4485445,-4.3002734,0.0,0.0,2.0,-2.6578,-1.1987,-2.1694,-0.259358,-0.714577,0.642255
1590066445223,-3.4289086,-9.636527,-4.4810643,0.0,0.0,2.0,-2.0369,-0.3418,-3.1348,-0.258205,-0.714841,0.641886
1590066445245,-2.0627005,-8.41719,-3.2557504,0.0,0.0,2.0,-0.6592,0.6742,-2.1285,-0.256566,-0.716344,0.640595
1590066445267,-1.0128335,-7.162829,-1.8476342,0.0,0.0,2.0,0.35799998,1.8999,-0.7856,-0.255476,-0.718799,0.638044
1590066445289,-0.9738463,-6.6760592,-1.3536912,0.0,0.0,2.0,0.78779995,2.6618,0.17639999,-0.255472,-0.721962,0.633952
1590066445309,-1.245751,-6.773158,-1.3291554,0.0,0.0,2.0,0.5276,2.8197,0.5062,-0.256512,-0.725957,0.628221
1590066445331,-2.0016196,-7.310264,-2.6961873,0.0,0.0,2.0,-0.4355,2.2913,-0.1284,-0.260916,-0.734762,0.61456
1590066445351,-2.2130373,-7.6211557,-4.5527563,0.0,0.0,2.0,-0.89739996,1.836,-1.9135,-0.264393,-0.742314,0.602766
1590066445373,-1.8003247,-7.314593,-2.4126468,0.0,0.0,2.0,-0.8649,1.8880999,-1.0646,-0.266756,-0.750704,0.590252
1590066445393,-1.4097059,-6.7885866,0.6287844,0.0,0.0,2.0,-0.4759,2.4064999,2.4479,-0.270835,-0.756939,0.578636
1590066445415,-2.29897,-7.8871517,-1.9216247,0.0,0.0,2.0,-0.9149,2.1304,3.0319,-0.277809,-0.758557,0.569781
1590066445433,-3.5938118,-10.240278,-4.3802304,0.0,0.0,2.0,-2.6262999,0.0179,-1.1546,-0.281949,-0.758704,0.56459
1590066445455,-1.6205298,-12.124936,-0.71017766,0.0,0.0,2.0,-2.1972,-2.2712,-0.076299995,-0.28029498,-0.76389897,0.55901897
1590066445477,-1.1134571,-12.053809,-2.593792,0.0,0.0,2.0,-0.1927,-2.8920999,1.095,-0.273808,-0.773216,0.553234
1590066445498,-3.08241,-11.977099,-3.1643014,0.0,0.0,2.0,-2.1111999,-2.7675998,0.1096,-0.268363,-0.77560997,0.554877
1590066445518,-3.1802564,-13.213379,0.13612473,0.0,0.0,2.0,-2.223,-3.8781998,3.2356,-0.258848,-0.77522,0.562885
1590066445540,-3.2160833,-14.9785385,-0.028692113,0.0,0.0,2.0,-2.0242,-5.3767,3.3955998,-0.247579,-0.770605,0.576684
1590066445560,-2.937676,-15.335168,-0.5574276,0.0,0.0,2.0,-1.9445,-6.1478,2.3068,-0.237499,-0.763683,0.591535
1590066445585,-2.1825159,-14.047222,-1.4678277,0.0,0.0,2.0,-1.1465,-5.0888,1.1187999,-0.226489,-0.754816,0.608315
1590066445606,-0.03643975,-11.400902,-1.9505178,0.0,0.0,2.0,0.21429999,-3.0261998,0.249,-0.209745,-0.738934,0.634654
1590066445626,0.7440221,-9.513859,-1.04799,0.0,0.0,2.0,1.706,-1.305,-0.2882,-0.201588,-0.727258,0.650901
1590066445648,0.95582277,-6.847532,-1.0027492,0.0,0.0,2.0,2.3235,2.2231998,0.109299995,-0.195233,-0.714815,0.666559
1590066445668,0.24122061,-3.9478662,-1.9084085,0.0,0.0,2.0,2.007,5.1644,-1.0931,-0.189692,-0.70305,0.6806
1590066445690,-0.33057222,-2.4738426,-0.90657884,0.0,0.0,2.0,1.0946,7.0045,-1.3733,-0.18279,-0.692867,0.693002
1590066445710,0.046859313,-4.042629,0.39245754,0.0,0.0,2.0,1.2764,6.6373,-0.0381,-0.17406599,-0.683194,0.705143
1590066445733,-0.16926049,-6.5866885,0.65952593,0.0,0.0,2.0,1.3629,4.2408,0.18329999,-0.166089,-0.673618,0.716491
1590066445753,-1.1972731,-9.491037,-1.0119812,0.0,0.0,2.0,0.7276,1.5069,-0.7999,-0.162155,-0.666646,0.723907
1590066445773,-2.16975,-13.257413,-3.6854713,0.0,0.0,2.0,-0.66179997,-1.8305,-2.9276,-0.15959,-0.6639,0.72704
1590066445795,-0.65139526,-14.236029,-5.465704,0.0,0.0,2.0,0.415,-4.5685997,-5.9403996,-0.140956,-0.663515,0.732575
1590066445815,1.7354419,-12.283184,-5.144019,0.0,0.0,2.0,2.8659,-2.7928,-6.4378,-0.118431,-0.664253,0.737092
1590066445837,1.2313858,-10.21193,-0.50339526,0.0,0.0,2.0,2.6618,-0.9073,-1.9957999,-0.105339,-0.668313,0.735846
1590066445855,0.46788445,-9.561532,-0.2889706,0.0,0.0,2.0,1.5888,0.0984,-0.83879995,-0.112703,-0.672701,0.730311
1590066445877,-0.07616434,-8.900416,-1.1396592,0.0,0.0,2.0,1.1959,0.6723,-1.7685,-0.129625,-0.676038,0.723106
1590066445898,-0.16486473,-7.7957025,-1.0044442,0.0,0.0,2.0,0.76809996,1.5613999,-1.0734999,-0.143014,-0.680669,0.714573
1590066445920,0.0581791,-6.805384,-2.9983068,0.0,0.0,2.0,0.91599995,2.7828,-2.6987,-0.148285,-0.688051,0.705178
1590066445940,-0.68888843,-6.398207,-1.9118276,0.0,0.0,2.0,0.565,3.3500998,-2.6281,-0.147472,-0.698751,0.694247
1590066445964,-1.7426245,-6.932938,1.98826,0.0,0.0,2.0,-0.99259996,3.1276999,2.0568,-0.150672,-0.718098,0.672615
1590066445984,-2.1965747,-8.275463,3.5689406,0.0,0.0,2.0,-1.2754999,2.4208,3.6973,-0.15686099,-0.726664,0.660547
1590066446003,-2.297897,-8.622851,2.5389457,0.0,0.0,2.0,-1.9066,1.1166999,4.1828,-0.163458,-0.730099,0.653213
1590066446025,-2.1090906,-9.005962,0.78116095,0.0,0.0,2.0,-1.8316,0.9,2.4398,-0.169648,-0.732541,0.647125
1590066446045,-1.215498,-11.445366,-3.1991036,0.0,0.0,2.0,-1.5666,0.3213,1.3607999,-0.171965,-0.734719,0.643605
1590066446066,-1.1144722,-14.373887,-1.095309,0.0,0.0,2.0,-0.7662,-3.9935,-0.78639996,-0.174584,-0.746606,0.629996
1590066446088,-0.058102485,-13.471024,1.9647969,0.0,0.0,2.0,-0.3788,-4.5499,3.8648999,-0.175031,-0.755923,0.620151
1590066446107,0.12276509,-13.673344,-0.370632,0.0,0.0,2.0,0.777,-3.6090999,2.9097998,-0.177177,-0.758266,0.617138
1590066446129,-0.22677878,-14.975865,-1.2092922,0.0,0.0,2.0,0.39929998,-4.9111,0.5893,-0.180011,-0.755739,0.618778
1590066446151,-0.11016201,-15.499764,-0.19806752,0.0,0.0,2.0,0.069299996,-5.7584,1.6506,-0.182529,-0.752558,0.62135
1590066446172,1.2020617,-14.297013,-0.27159825,0.0,0.0,2.0,0.9346,-5.5913997,1.5201,-0.181802,-0.745651,0.630363
1590066446192,1.6750889,-11.83792,0.4542088,0.0,0.0,2.0,2.1283,-3.6771998,1.6668999,-0.180325,-0.742612,0.634762
1590066446213,0.8381621,-8.960635,1.3286287,0.0,0.0,2.0,1.7971,0.0998,2.3955,-0.169656,-0.728939,0.655082
1590066446235,0.7781826,-6.519756,0.7164217,0.0,0.0,2.0,1.5609,2.4801,1.772,-0.158156,-0.717519,0.671664
1590066446254,-0.35806724,-4.314236,0.14293383,0.0,0.0,2.0,0.8279,4.9663,0.5572,-0.143261,-0.704549,0.689788
1590066446279,-1.1539477,-3.2996888,0.07362649,0.0,0.0,2.0,-0.19139999,6.2769,-0.078899994,-0.128325,-0.691019,0.707205
1590066446297,-2.2922375,-4.058057,0.8153023,0.0,0.0,2.0,-1.0912,6.1299,-0.0279,-0.118732,-0.678216,0.721479
1590066446323,-3.3108935,-6.0157576,-1.1771715,0.0,0.0,2.0,-2.4278998,4.1215,-1.5823,-0.117344,-0.662989,0.735193
1590066446340,-5.0922465,-9.347921,-3.8301961,0.0,0.0,2.0,-4.0492,1.273,-4.2272,-0.121249996,-0.657472,0.739097
1590066446360,-4.746974,-13.414951,-7.404586,0.0,0.0,2.0,-4.6089,-0.7316,-5.7725,-0.122232,-0.65630597,0.739977
1590066446382,-1.4633074,-15.716239,-6.935935,0.0,0.0,2.0,-1.5449,-5.8346996,-8.7498,-0.114234,-0.659039,0.740465
1590066446402,2.8908834,-13.33646,-0.15701175,0.0,0.0,2.0,3.0483,-4.3226,-2.4924,-0.103341,-0.664636,0.73857
1590066446425,3.8567908,-9.990104,2.4097354,0.0,0.0,2.0,4.8993,-1.3038,1.5886999,-0.109318,-0.668246,0.73466897
1590066446445,3.9650087,-8.564777,1.1041389,0.0,0.0,2.0,5.0808,0.89239997,1.374,-0.137683,-0.670523,0.726436
1590066446465,3.7664719,-9.225415,0.8330481,0.0,0.0,2.0,4.9037,1.0124,0.64309996,-0.16468,-0.673181,0.716273
1590066446486,3.6966665,-8.765268,-1.4407349,0.0,0.0,2.0,5.5284,0.7037,-0.7118,-0.175837,-0.678074,0.707937
1590066446507,0.111646414,-7.587675,-2.5560498,0.0,0.0,2.0,2.8999999,1.3913,-2.6055,-0.169308,-0.68299997,0.70507
1590066446528,-1.7257215,-6.8685436,-2.8621724,0.0,0.0,2.0,0.2785,2.5549,-2.52,-0.16123,-0.688491,0.701539
1590066446550,-3.5803084,-6.6381545,0.10381258,0.0,0.0,2.0,-2.4989998,3.0788,-0.0725,-0.167093,-0.700984,0.68526
1590066446569,-4.483487,-5.392499,0.28059086,0.0,0.0,2.0,-3.554,3.4290998,1.6927999,-0.183544,-0.709171,0.66897
1590066446590,-5.2147627,-5.923724,0.7708467,0.0,0.0,2.0,-4.3429,4.4361997,0.98389995,-0.200737,-0.714054,0.654879
1590066446612,-4.1005206,-8.530704,1.2355901,0.0,0.0,2.0,-4.3602,1.8287,2.2161999,-0.218844,-0.719098,0.639104
1590066446633,-0.7734325,-9.150935,3.2137656,0.0,0.0,3.0,-1.3291,0.4965,3.8195,-0.238693,-0.724408,0.622385
1590066446655,0.8812195,-10.173672,0.11768938,0.0,0.0,3.0,0.7621,0.4235,5.43,-0.253435,-0.73118,0.607453
1590066446675,0.047912765,-15.552151,-6.788443,0.0,0.0,3.0,1.0723,-4.46,-6.552,-0.264092,-0.739386,0.593241
1590066446697,0.83799934,-18.745739,1.9967834,0.0,0.0,3.0,0.58199996,-8.4503,3.4980998,-0.274631,-0.750287,0.575878
1590066446717,2.6006584,-17.208448,-2.3692253,0.0,0.0,3.0,2.8011,-8.9495,2.6011999,-0.284566,-0.752428,0.568922
1590066446739,0.75921094,-15.070552,-0.02909434,0.0,0.0,3.0,1.8848,-5.8582997,2.7689998,-0.294193,-0.749421,0.568551
1590066446760,-0.08047391,-14.766976,-0.62732875,0.0,0.0,3.0,0.8854,-5.5418997,2.2340999,-0.299214,-0.745574,0.570381
1590066446781,-0.8306348,-13.260153,-0.19349937,0.0,0.0,3.0,0.3058,-4.2553,2.4479,-0.301557,-0.738154,0.577774
1590066446801,-2.6825976,-10.930555,-1.1534115,0.0,0.0,3.0,-1.1054,-2.2265,1.831,-0.300132,-0.729231,0.58926
1590066446823,-4.1474376,-9.087317,-3.2181613,0.0,0.0,3.0,-2.5047998,-0.2625,-0.32389998,-0.29681098,-0.719989,0.60258
1590066446844,-4.931701,-7.319994,-4.1183624,0.0,0.0,3.0,-3.5928,1.5698,-2.0772,-0.293871,-0.71185,0.615051
1590066446864,-4.219991,-5.375768,-4.20417,0.0,0.0,3.0,-3.2617,3.4287999,-2.5007,-0.294662,-0.70616597,0.622935
1590066446887,-2.1478863,-2.6646316,-2.623547,0.0,0.0,3.0,-0.74079996,6.6836996,-1.1321,-0.305013,-0.700174,0.626212
1590066446904,-0.09323022,-1.191872,-1.9166063,0.0,0.0,3.0,0.48479998,7.6596,-0.46809998,-0.311204,-0.697338,0.626373
1590066446926,1.7691714,-3.0275543,-3.168429,0.0,0.0,3.0,3.6353998,6.8332,-1.4218999,-0.324499,-0.690073,0.626937
1590066446948,1.5909278,-6.0989895,-4.3485885,0.0,0.0,3.0,3.4003,3.5853,-2.7463,-0.33833998,-0.683375,0.623793
1590066446968,1.7742279,-7.8227377,-2.291615,0.0,0.0,3.0,3.6934,2.0821,-1.4176999,-0.346309,-0.681752,0.619786
1590066446990,1.0393612,-9.229351,0.09532754,0.0,0.0,2.0,3.2668998,0.71279997,1.2538999,-0.349241,-0.682982,0.616853
1590066447010,-0.98265696,-11.1445875,0.5885235,0.0,0.0,2.0,1.6480999,-1.0067999,2.4403,-0.348599,-0.683667,0.616863
1590066447031,-3.4506574,-13.119651,-2.9306943,0.0,0.0,2.0,-1.0110999,-3.2245998,0.47439998,-0.34808,-0.682298,0.618441
1590066447054,-4.864338,-13.328262,-7.2545557,0.0,0.0,2.0,-2.9610999,-4.1558,-4.6962,-0.347954,-0.679693,0.621072
1590066447074,-2.9919095,-12.006643,-6.2236123,0.0,0.0,2.0,-2.0170999,-3.1244,-5.3561997,-0.347359,-0.677309,0.62457
1590066447093,-1.6772723,-10.587217,-5.312465,0.0,0.0,2.0,-0.061899997,-1.6737,-4.1972,-0.34187,-0.677219,0.629644
1590066447116,-1.4052527,-8.02321,-3.4407072,0.0,0.0,2.0,0.6006,1.0877,-2.2228,-0.33531,-0.678773,0.632874
1590066447135,-1.6652822,-6.510993,-2.799406,0.0,0.0,2.0,0.3656,2.7063,-1.4361,-0.335977,-0.67889297,0.631298
1590066447157,-1.9625367,-5.6702356,-2.1853125,0.0,0.0,2.0,-0.046299998,3.7752998,-0.8656,-0.338567,-0.679511,0.627374
1590066447178,-1.9096535,-6.0275655,-1.6389077,0.0,0.0,2.0,-0.1664,3.7626998,-0.0471,-0.341818,-0.682463,0.620768
1590066447200,-1.8014165,-6.1817713,-2.0412006,0.0,0.0,2.0,-0.1717,3.2449,-0.051099997,-0.346645,-0.686825,0.611781
1590066447219,-1.3460298,-5.3614697,-2.0016294,0.0,0.0,2.0,0.053999998,3.6938999,-0.1241,-0.351202,-0.693054,0.601033
1590066447240,-0.49448884,-4.5508795,-1.5379968,0.0,0.0,2.0,0.5574,4.6474,0.6337,-0.356526,-0.700501,0.588003
1590066447262,-0.38069722,-6.1225295,-1.830032,0.0,0.0,2.0,1.1654,4.4343,0.8785,-0.36448,-0.707068,0.572791
1590066447285,-0.35913983,-8.754504,-2.5875,0.0,0.0,2.0,0.8696,2.2721999,1.1084,-0.376237,-0.716587,0.548959
1590066447305,-0.9402126,-11.834232,-6.3150516,0.0,0.0,2.0,0.0687,-2.4083998,-2.5987,-0.382688,-0.723567,0.532801
1590066447326,-2.1461816,-14.252061,-7.662288,0.0,1.0,2.0,-1.1915,-4.9832997,-4.1573,-0.385747,-0.73091,0.51948
1590066447349,-3.1673565,-15.24619,-3.4614124,0.0,1.0,2.0,-2.2854,-6.1874,-0.83599997,-0.381537,-0.739123,0.513213
1590066447369,-2.8757427,-13.775595,-1.5571889,0.0,1.0,2.0,-2.2495,-5.4202,2.106,-0.376591,-0.746364,0.508842
1590066447389,-3.2725577,-12.626971,-2.4530897,0.0,1.0,2.0,-2.3767998,-3.8618,1.8819,-0.379219,-0.746754,0.505728
1590066447410,-3.2311573,-12.643645,-4.0711865,0.0,1.0,2.0,-2.6713998,-3.5784,0.3497,-0.380115,-0.745551,0.50654
1590066447432,-1.3265314,-12.645196,-4.2644277,0.0,1.0,2.0,-1.5737,-3.8107,-0.5814,-0.377474,-0.745564,0.509873
1590066447452,-0.6613551,-11.619128,-4.131339,0.0,1.0,2.0,-0.14469999,-3.4826,-0.33249998,-0.374667,-0.744426,0.515426
1590066447474,-0.72605604,-9.635685,-4.108594,0.0,1.0,2.0,0.3245,-2.0054998,-0.51629996,-0.368848,-0.738688,0.529288
1590066447495,-0.8326842,-7.737093,-3.6695452,0.0,1.0,2.0,0.2717,1.1,-0.4567,-0.362122,-0.732858,0.542822
1590066447515,-0.8196789,-6.026493,-3.1209662,0.0,1.0,2.0,0.3013,2.0345,-0.37669998,-0.353391,-0.726492,0.558213
1590066447537,-0.74272925,-4.1605477,-2.2635932,0.0,1.0,2.0,0.5845,4.6286,0.0578,-0.343565,-0.720353,0.573843
1590066447557,-1.0699017,-3.022488,-1.3641299,0.0,1.0,2.0,0.49879998,6.0652,0.77059996,-0.33309498,-0.715079,0.588711
1590066447579,-1.8553244,-2.8323405,-1.403845,0.0,1.0,2.0,0.0039,6.6612997,0.959,-0.322631,-0.710847,0.601946
1590066447601,-1.8363527,-3.612266,-1.9948872,0.0,1.0,2.0,-0.4409,6.4434,0.2662,-0.312244,-0.709282,0.611606
1590066447623,-1.2808021,-5.552441,-2.6239686,0.0,1.0,2.0,-0.016999999,5.1598997,-0.28849998,-0.297531,-0.710622,0.621202
1590066447642,-0.5545163,-8.69618,-3.3117557,0.0,1.0,2.0,1.0253,1.7159,-1.5261999,-0.287236,-0.712867,0.6263
1590066447663,-0.5469027,-11.271049,-3.0568018,0.0,1.0,2.0,1.2921,-1.4587,-1.3519,-0.275181,-0.715783,0.631415
1590066447682,-1.956465,-14.820788,-2.7061086,0.0,0.0,2.0,0.4491,-4.6447997,-1.0935,-0.261649,-0.719571,0.635644
1590066447704,-3.9011219,-14.649459,-3.0617816,0.0,0.0,2.0,-1.3899,-5.6752,-1.1784999,-0.251951,-0.72141,0.639038
1590066447727,-3.6749177,-11.1602745,-4.4348946,0.0,0.0,2.0,-2.1004999,-2.6817,-2.5986,-0.245667,-0.721215,0.642252
1590066447743,-2.487432,-9.585282,-3.4122546,0.0,0.0,2.0,-1.0879999,-0.45299998,-2.2271,-0.243515,-0.720866,0.643319
1590066447765,-1.5038267,-8.204191,-2.9497905,0.0,0.0,2.0,0.19919999,0.89849997,-1.4563,-0.242578,-0.721389,0.642791
1590066447787,-1.1763384,-6.7486224,-2.618213,0.0,0.0,2.0,0.48549998,2.36,-1.2062,-0.239947,-0.722787,0.641946
1590066447809,-1.0215771,-5.6388235,-1.3782749,0.0,0.0,2.0,0.7333,3.5953,-0.3073,-0.235558,-0.725494,0.640337
1590066447829,-1.4202979,-5.443198,-0.62579644,0.0,0.0,2.0,0.3663,4.0546,0.78529996,-0.23241399,-0.728713,0.63729
1590066447851,-2.1139843,-5.6191244,-0.88705176,0.0,0.0,2.0,-0.6641,3.9483998,0.99499995,-0.231661,-0.734891,0.628716
1590066447870,-3.1127112,-5.784592,-2.0899754,0.0,0.0,2.0,-1.6212,3.8293998,0.4878,-0.233576,-0.741494,0.618663
1590066447891,-4.4837937,-6.282788,-3.7041557,0.0,0.0,2.0,-3.185,3.3102,-1.4918,-0.238029,-0.750187,0.60450697
1590066447913,-4.62736,-7.248944,-2.3067176,0.0,0.0,2.0,-3.8346,2.6220999,0.7726,-0.243839,-0.76022,0.587954
1590066447935,-3.7392452,-9.379247,-2.653752,0.0,0.0,2.0,-3.514,0.9061,-0.5873,-0.251205,-0.766126,0.575832
1590066447953,-1.4344524,-11.5532875,0.54990983,0.0,0.0,2.0,-1.2791,-1.767,3.0087,-0.25487,-0.770677,0.567931
1590066447975,1.0910856,-13.608509,-1.3405136,0.0,0.0,2.0,1.1068,-3.7219,3.4194,-0.259664,-0.774221,0.560528
1590066447997,1.5437813,-14.961223,-1.5936477,0.0,0.0,2.0,2.5077,-5.3767,1.7291,-0.262901,-0.777205,0.555159
1590066448017,-0.8067981,-16.080044,-1.37386,0.0,0.0,2.0,1.0310999,-6.3697996,1.8087,-0.261284,-0.778107,0.556329
1590066448039,-3.0334632,-17.955736,-0.5177222,0.0,1.0,2.0,-1.0857999,-7.8059998,2.3137999,-0.256519,-0.770824,0.569797
1590066448059,-3.573078,-18.753351,-2.928396,0.0,1.0,2.0,-2.6899,-9.3586,1.4379,-0.240137,-0.763643,0.588042
1590066448081,-1.9436607,-18.252522,-3.8464575,0.0,1.0,2.0,-1.2997999,-9.2843,-3.7833,-0.228283,-0.754314,0.605278
1590066448101,0.10150458,-12.4688015,0.58605266,0.0,1.0,2.0,0.5336,-5.3054,3.1924,-0.213283,-0.74785,0.619741
1590066448123,-0.027150247,-6.4256063,-1.4604821,0.0,1.0,2.0,1.1541,1.5259,0.1503,-0.204349,-0.738853,0.633909
1590066448143,0.48700938,-2.0346692,0.60337716,0.0,1.0,2.0,1.5547999,6.798,1.3988,-0.198577,-0.727247,0.649378
1590066448165,-0.81993747,0.77645874,1.6804422,0.0,1.0,2.0,0.7123,9.382299,2.3397,-0.190426,-0.714165,0.666782
1590066448186,0.02360683,1.7590295,1.5658654,0.0,1.0,2.0,0.9472,11.519,2.2026,-0.177828,-0.700129,0.685972
1590066448206,-0.6389167,-3.3418365,-1.3758136,0.0,1.0,2.0,0.8739,9.3495,0.2445,-0.166408,-0.685767,0.703891
1590066448229,-1.1713679,-9.72224,-5.192736,0.0,1.0,2.0,0.0958,0.99939996,-5.3599,-0.156398,-0.672128,0.719939
1590066448249,-1.2790209,-13.756029,-4.7814217,0.0,1.0,2.0,0.2199,-3.1992998,-5.3032,-0.1505,-0.670416,0.723698
1590066448269,-2.10661,-15.302281,-5.7433066,0.0,1.0,2.0,-0.5712,-5.6703,-6.6236,-0.137141,-0.670057,0.727921
1590066448291,-3.0532105,-12.713804,-2.4527447,0.0,1.0,2.0,-1.7760999,-4.4463,-4.2158,-0.116962,-0.672957,0.729889
1590066448311,-1.1642811,-9.854859,-1.2004144,0.0,1.0,2.0,-0.4845,-0.8567,-2.2137,-0.103631,-0.676675,0.728873
1590066448333,0.5624938,-9.494321,-1.6996725,0.0,1.0,2.0,1.1566,0.2965,-1.6953,-0.107857,-0.678181,0.726854
1590066448353,2.7195544,-9.822471,-2.5321171,0.0,1.0,2.0,3.3948,0.0053999997,-3.0960999,-0.124113,-0.678039,0.72412
1590066448376,3.9433076,-10.2070465,-1.7975667,0.0,0.0,2.0,5.4174,-0.5323,-2.1152,-0.151912,-0.67976,0.715978
1590066448396,2.5449886,-8.965289,-1.278973,0.0,0.0,2.0,4.2084,0.63729995,-1.3716999,-0.158763,-0.683265,0.710386
1590066448417,-0.09165961,-8.117023,-3.4282572,0.0,0.0,2.0,1.7487999,1.4506999,-2.8123999,-0.155826,-0.689075,0.70502
1590066448436,-0.90875274,-7.4751477,-6.348427,0.0,0.0,2.0,0.4249,2.0472999,-5.7854,-0.150459,-0.698129,0.696917
1590066448458,-2.7814496,-6.708965,0.22010374,0.0,0.0,2.0,-0.8311,2.7856998,-2.4126,-0.149146,-0.713612,0.680606
1590066448480,-3.7320626,-4.5508504,3.4391174,0.0,0.0,2.0,-3.1534,4.3156,4.5631,-0.159609,-0.730191,0.6581
1590066448500,-4.2892027,-4.9595504,1.4785824,0.0,0.0,2.0,-3.4891999,5.5681,3.6933,-0.179023,-0.732297,0.646538
1590066448522,-2.669669,-9.365485,1.7265067,0.0,0.0,2.0,-2.9329,2.2045999,2.139,-0.185325,-0.730215,0.644072
1590066448543,-2.1437778,-11.486326,2.4418175,0.0,0.0,2.0,-2.2740998,-0.9167,4.694,-0.180962,-0.734901,0.640438
1590066448562,-1.4433492,-14.1073265,-4.4353733,0.0,0.0,2.0,-1.209,-3.5793998,-0.2814,-0.174476,-0.747131,0.630899
1590066448586,-0.46152547,-13.448451,4.57214,0.0,0.0,2.0,-0.4711,-4.4379,5.0511,-0.173118,-0.770108,0.60610497
1590066448606,1.5305748,-13.939818,-0.14701356,0.0,0.0,2.0,2.1390998,-3.7858999,4.4302998,-0.182612,-0.772035,0.60022
1590066448625,-0.022534225,-16.77259,-1.0491391,0.0,0.0,2.0,0.97319996,-6.8869,0.889,-0.189694,-0.766059,0.603696
1590066448647,-1.6603885,-17.17604,-0.70518816,0.0,0.0,2.0,-0.7269,-7.6161,1.8946999,-0.19141799,-0.762537,0.606435
1590066448668,-1.0400317,-14.962679,-0.19180429,0.0,0.0,2.0,-1.1,-6.7598,1.614,-0.19478899,-0.757198,0.610826
1590066448689,0.33648112,-11.816889,0.24779989,0.0,0.0,2.0,0.3739,-3.3669,2.2429,-0.195874,-0.748992,0.620022
1590066448711,1.1106988,-9.716024,0.26898375,0.0,0.0,2.0,1.3734,-0.87039995,1.7523999,-0.194366,-0.738629,0.63295
1590066448731,1.3363955,-7.9214845,0.6072941,0.0,0.0,2.0,1.9836999,0.99259996,1.8241999,-0.18801899,-0.727778,0.648292
1590066448753,0.94023174,-4.487989,-0.51535666,0.0,0.0,2.0,1.7939999,4.9823,0.274,-0.172418,-0.708691,0.675115
1590066448772,-0.015667656,-1.6145538,-2.1430786,0.0,0.0,2.0,0.9158,8.0314,-1.9125999,-0.158388,-0.694185,0.694492
1590066448796,-0.73062414,-2.3844907,-0.4632876,0.0,0.0,2.0,-0.0094,7.8423,-0.6688,-0.140693,-0.681616,0.712143
1590066448815,-2.42388,-4.8577776,-2.3568618,0.0,0.0,2.0,-1.0091,5.7496,-2.4759,-0.129211,-0.671988,0.724246
1590066448837,-5.4042206,-8.12751,-4.923111,0.0,0.0,2.0,-3.5054998,2.8946998,-4.694,-0.124894,-0.666761,0.7301
1590066448857,-7.755078,-14.039379,-9.707052,0.0,0.0,2.0,-7.0339,-2.3966,-9.8706,-0.125222,-0.664874,0.731845
1590066448878,-3.3109608,-16.660818,-5.7578254,0.0,0.0,2.0,-4.1837,-6.6534996,-7.868,-0.120557,-0.667689,0.731166
1590066448900,3.053948,-13.359196,0.04033751,0.0,0.0,2.0,1.7702999,-5.4993,-3.3953,-0.108892,-0.674557,0.728644
1590066448921,5.1534233,-9.254595,2.8518486,0.0,0.0,2.0,5.3339996,-1.7409999,1.5674,-0.106205,-0.682742,0.72232
1590066448942,5.1299314,-8.073105,1.9692022,0.0,0.0,2.0,6.529,0.91529995,2.4034,-0.125397,-0.688708,0.713222
1590066448961,5.284396,-9.004966,-1.1290864,0.0,0.0,2.0,6.4005,0.7841,-0.2302,-0.171005,-0.690303,0.698867
1590066448983,4.4447107,-7.2680683,-2.625022,0.0,0.0,2.0,6.1425,1.9308,-2.2212,-0.187989,-0.692752,0.689308
1590066449001,0.751358,-5.849121,-4.597777,0.0,0.0,2.0,4.7441998,3.0554,-2.1276,-0.192344,-0.696075,0.683381
1590066449023,-4.2321153,-5.6853004,-4.9537373,0.0,0.0,2.0,0.29659998,3.9448998,-5.0000997,-0.199202,-0.705959,0.66776
1590066449046,-7.003471,-5.3372693,4.352879,0.0,0.0,2.0,-5.6678,4.9470997,2.99,-0.215221,-0.725004,0.635343
1590066449065,-5.806236,-6.5720835,6.9556637,0.0,0.0,2.0,-6.3269,3.7366,9.0522995,-0.229839,-0.729529,0.619626
1590066449088,-5.32413,-9.897313,-2.476859,0.0,0.0,2.0,-5.1783,1.5627999,3.4613998,-0.24,-0.72621,0.614285
1590066449108,-3.465856,-13.145728,-2.7119792,0.0,0.0,2.0,-4.3802,-2.7124,-2.5221999,-0.243944,-0.726905,0.609692
1590066449129,0.30912018,-13.641137,-3.1109684,0.0,0.0,2.0,-1.6685,-3.5663,1.4914,-0.250199,-0.738542,0.594757
1590066449149,2.8770642,-15.3444,0.23313779,0.0,0.0,2.0,1.6248,-4.8089,-0.29299998,-0.268039,-0.74814,0.574881
1590066449172,5.215749,-18.314426,-0.94691634,0.0,0.0,2.0,5.5332,-8.5476,2.3694,-0.306122,-0.744713,0.556233
1590066449193,1.6170439,-18.484905,0.26325685,0.0,0.0,2.0,3.1121,-9.7209,2.7050998,-0.321288,-0.736341,0.556221
1590066449213,-0.0043861778,-16.64108,-0.035980064,0.0,0.0,2.0,0.56369996,-7.5692997,2.8332999,-0.330722,-0.728066,0.558301
1590066449235,-0.8470207,-13.059326,-1.0344484,0.0,0.0,2.0,0.0079,-4.4727,1.6337999,-0.336169,-0.717837,0.566134
1590066449254,-1.9960747,-10.144645,-1.5486751,0.0,0.0,2.0,-0.9421,-1.476,0.898,-0.33372,-0.70846,0.580146
1590066449275,-3.376648,-7.915844,-2.6665182,0.0,0.0,2.0,-2.0807,1.1001999,-0.43359998,-0.32744,-0.699765,0.596623
1590066449296,-4.3028116,-6.354671,-3.755382,0.0,0.0,2.0,-3.1539998,2.6841,-1.7463,-0.320261,-0.693105,0.611393
1590066449318,-3.3366554,-4.242353,-2.692098,0.0,0.0,2.0,-2.8716,4.0478,-2.0158,-0.318315,-0.686945,0.621922
1590066449339,-2.2956083,-2.8002295,-2.36957,0.0,0.0,2.0,-1.1037999,6.5688,-1.0008,-0.329285,-0.677895,0.627184
1590066449361,-0.08461109,-2.1461432,-2.5320792,0.0,0.0,2.0,0.91929996,7.4389997,-1.1855999,-0.34298798,-0.671123,0.626005
1590066449380,2.5581086,-3.869231,-3.2069182,0.0,0.0,2.0,3.833,6.2868,-1.5267,-0.35996,-0.663764,0.621835
1590066449402,3.0351677,-7.132806,-4.408999,0.0,0.0,2.0,4.8097997,3.405,-2.8228998,-0.375155,-0.65751797,0.616402
1590066449419,2.5751555,-9.004726,-4.31213,0.0,0.0,2.0,4.5667,1.0529,-2.8676,-0.385564,-0.65546,0.610063
1590066449442,1.2250556,-12.443154,-3.82422,0.0,0.0,2.0,3.386,-1.7335,-2.2484999,-0.389388,-0.657822,0.605273
1590066449464,-0.12939224,-14.981143,-3.1811376,0.0,0.0,2.0,2.2668,-4.7146997,-1.7524999,-0.388445,-0.663516,0.602106
1590066449485,-1.5940499,-14.036285,-4.0408764,0.0,0.0,2.0,0.5107,-5.6035,-1.119,-0.385677,-0.670967,0.598761
1590066449505,-1.1686099,-11.256846,-5.607747,0.0,0.0,2.0,0.4813,-2.6852,-3.3644998,-0.386783,-0.675538,0.593332
1590066449527,-0.5168507,-9.478386,-4.452602,0.0,0.0,2.0,1.0882,-0.1752,-2.349,-0.393742,-0.675795,0.584397
1590066449546,-0.40414125,-8.381956,-4.010278,0.0,0.0,2.0,1.2150999,0.4339,-1.9557999,-0.395251,-0.675319,0.581723
1590066449569,-0.49968904,-7.456004,-3.4344537,0.0,0.0,2.0,0.7679,1.7612,-1.5149,-0.395041,-0.673573,0.576735
1590066449589,-0.5632216,-6.4945116,-2.3302095,0.0,0.0,2.0,0.57559997,2.7298,-0.4294,-0.391091,-0.673536,0.575372
1590066449611,-1.3024745,-5.621528,-1.903419,0.0,0.0,2.0,-0.085999995,3.6989,0.072799996,-0.385177,-0.675168,0.574729
1590066449629,-1.3908492,-5.6597204,-1.1262228,0.0,0.0,2.0,-0.61469996,4.0176,0.6012,-0.377065,-0.680789,0.573798
1590066449651,-1.4540179,-6.5605145,-1.0285683,0.0,0.0,2.0,-0.61109996,3.2777998,1.5171,-0.370065,-0.689496,0.570575
1590066449673,-1.2652686,-7.088561,-1.7861031,0.0,0.0,2.0,-0.6482,2.4928,0.778,-0.367219,-0.697724,0.564292
1590066449694,-0.92368305,-6.962741,-1.964069,0.0,0.0,2.0,-0.33609998,2.4343998,0.73179996,-0.366148,-0.705513,0.556866
1590066449715,-0.94640875,-6.4876738,-2.56804,0.0,0.0,2.0,-0.3141,2.6664,0.6173,-0.365779,-0.712868,0.548652
1590066449735,-1.315451,-6.795415,-2.48295,0.0,0.0,2.0,-0.4899,2.8699,0.35999998,-0.365522,-0.71955,0.540244
1590066449757,-1.7376062,-7.675619,-2.2002234,0.0,0.0,2.0,-1.3342999,1.5787,1.0534999,-0.362404,-0.730668,0.528765
1590066449778,-2.4492877,-9.263482,-2.0762422,0.0,0.0,2.0,-2.0179,0.204,1.3844,-0.359539,-0.738118,0.522021
1590066449798,-2.769785,-10.738703,-3.041335,0.0,0.0,2.0,-2.4034998,-1.2463,0.88659996,-0.355934,-0.745999,0.515999
1590066449820,-2.6620266,-13.0697365,-4.4348564,0.0,0.0,2.0,-2.3897,-2.9961998,-0.325,-0.351126,-0.753416,0.512976
1590066449839,-2.4419134,-15.348068,-4.6486588,0.0,0.0,2.0,-1.9896,-5.7091,-0.7708,-0.344241,-0.760392,0.513992
1590066449861,-1.3854191,-17.28808,-4.2184973,0.0,0.0,2.0,-1.0812,-8.1173,-0.461,-0.336757,-0.765236,0.518698
1590066449881,-1.7500465,-15.633611,-4.254362,0.0,0.0,2.0,-0.4073,-7.6193,-0.4219,-0.330077,-0.766834,0.525664
1590066449902,-2.9306083,-13.249101,-3.5508597,0.0,0.0,2.0,-1.3095,-5.3348,-0.2209,-0.325336,-0.764781,0.533746
1590066449925,-3.106333,-11.635447,-2.8291612,0.0,0.0,2.0,-1.941,-2.6376998,0.4965,-0.316969,-0.756206,0.55189997
1590066449946,-2.7031305,-10.001318,-2.7222168,0.0,0.0,2.0,-1.5034,-0.91929996,0.3649,-0.308662,-0.74888897,0.567449
1590066449965,-1.9635135,-7.7102013,-2.9587355,0.0,0.0,2.0,-0.8124,0.99579996,-0.2584,-0.298455,-0.74145,0.58413297
1590066449987,-1.5536262,-5.9118204,-2.416238,0.0,0.0,2.0,-0.0817,2.9399,-0.4062,-0.286315,-0.734719,0.601021
1590066450007,-1.2540733,-4.182747,-1.9015516,0.0,0.0,2.0,0.339,4.8459997,0.2093,-0.27306,-0.728431,0.617468
1590066450029,-1.1183698,-3.478957,-1.9817669,0.0,0.0,2.0,0.5751,5.8075,-0.38689998,-0.255258,-0.723611,0.633734
1590066450049,-1.2150382,-3.2781792,-1.4482048,0.0,0.0,2.0,0.99719995,6.3311,-0.4193,-0.246059,-0.716642,0.646866
1590066450069,-1.8728787,-3.9046748,-1.2522345,0.0,0.0,2.0,0.4879,5.8638997,0.0954,-0.233136,-0.7124,0.658028
1590066450091,-2.1249595,-6.42508,-2.5451322,0.0,0.0,2.0,0.0874,4.3689,-0.3421,-0.22142,-0.709947,0.66598
1590066450111,-2.0607374,-8.493219,-3.137678,0.0,0.0,2.0,0.059499998,1.9059,-2.0621998,-0.214218,-0.708846,0.670226
1590066450133,-2.5855942,-12.854488,-3.0188584,0.0,0.0,2.0,-0.2437,-2.7524998,-2.1680999,-0.208302,-0.711031,0.670353
1590066450153,-3.264197,-14.635994,-1.7463403,0.0,0.0,2.0,-0.98429996,-5.0457997,-1.0107,-0.20363499,-0.714843,0.668046
1590066450175,-3.529331,-12.644947,-0.288961,0.0,0.0,2.0,-1.379,-3.7238,0.7448,-0.197621,-0.71967,0.665004
1590066450196,-1.3231891,-9.359863,-1.5623028,0.0,0.0,2.0,-0.078899994,-0.6243,0.01,-0.196643,-0.724114,0.66048
1590066450216,-0.28490043,-8.175432,-2.071722,0.0,0.0,2.0,1.6402999,0.90459996,-0.51919997,-0.203299,-0.725736,0.65625
1590066450238,-0.37605247,-7.0441437,-2.2644455,0.0,0.0,2.0,1.8276999,2.0758998,-0.91709995,-0.210828,-0.724769,0.65414
1590066450256,-1.0285394,-6.0953503,-1.9853582,0.0,0.0,2.0,1.2105,3.0570998,-0.7624,-0.213435,-0.724963,0.652256
1590066450278,-2.1087937,-5.0814247,-1.3463553,0.0,0.0,2.0,0.060799997,4.0401,-0.077199996,-0.213543,-0.728328,0.647662
1590066450300,-3.1705074,-4.410579,-1.5162766,0.0,0.0,2.0,-1.1193,4.9691997,0.5098,-0.214637,-0.734115,0.639775
1590066450321,-4.6359215,-5.2448816,-3.9386344,0.0,0.0,2.0,-2.451,4.8922,-0.9076,-0.218067,-0.74106,0.629288
1590066450341,-4.9576254,-6.754838,-3.1956751,0.0,0.0,2.0,-3.7108998,3.6896,-1.8177999,-0.22173,-0.750435,0.615671
1590066450363,-3.7733383,-8.757598,-1.9099313,0.0,0.0,2.0,-2.8727999,1.1144999,0.5834,-0.229322,-0.765936,0.592618
1590066450383,-1.8159828,-10.252145,1.7572867,0.0,0.0,2.0,-1.3971,-0.5694,4.0141,-0.235053,-0.771308,0.583239
1590066450405,-0.024325088,-11.826791,1.1476846,0.0,0.0,2.0,0.80689996,-2.0176,4.5478997,-0.24328999,-0.773429,0.576336
1590066450425,-0.34121203,-14.714601,-3.07902,0.0,0.0,2.0,1.2249,-4.4775,1.8747,-0.251041,-0.774636,0.570639
1590066450447,-1.3250853,-17.632769,-3.192668,0.0,0.0,2.0,0.1837,-7.7777,-1.2277,-0.250949,-0.776806,0.568917
1590066450465,-1.7627262,-17.784332,0.48282427,0.0,0.0,2.0,-0.10349999,-8.899,3.5716,-0.244989,-0.776263,0.574128
1590066450487,-2.5831137,-15.373926,-1.0074705,0.0,0.0,2.0,-0.99549997,-7.0224,2.3364,-0.242893,-0.7695,0.58389
1590066450509,-2.3396425,-13.08345,-1.441817,0.0,0.0,2.0,-1.1487,-4.5025997,1.3361,-0.243561,-0.760792,0.593507
1590066450530,-0.6865709,-11.016689,-1.0275913,0.0,0.0,2.0,-0.42139998,-2.896,1.1721,-0.245304,-0.750393,0.60428697
1590066450550,0.0048841713,-9.461683,-0.6457449,0.0,0.0,2.0,0.949,-0.99579996,1.1790999,-0.244221,-0.738561,0.618007
1590066450572,0.14184208,-7.0700297,-0.44155782,0.0,0.0,2.0,1.4520999,2.1794,1.0515,-0.238108,-0.718969,0.641735
1590066450592,-0.13507129,-5.7233486,-0.7200801,0.0,0.0,2.0,1.2533,3.7496,0.3556,-0.230436,-0.70535797,0.658921
1590066450614,-0.604986,-4.9610353,-0.81024575,0.0,0.0,2.0,0.76769996,4.5536,-0.28489998,-0.222175,-0.691454,0.67592
1590066450634,-1.0007571,-4.9753904,-0.38713285,0.0,0.0,2.0,0.47169998,4.855,-0.3146,-0.21201,-0.678974,0.691874
1590066450655,-1.5152903,-4.9507785,-0.67237806,0.0,0.0,2.0,-0.1899,4.7966,-0.76019996,-0.200552,-0.668591,0.70594
1590066450676,-2.0024815,-5.8726993,-0.8616061,0.0,0.0,2.0,-0.5065,4.4532,-1.4861,-0.189434,-0.660938,0.717171
1590066450696,-3.8686755,-9.496801,-1.3991332,0.0,0.0,2.0,-1.8528,1.9698999,-1.0921999,-0.180756,-0.65661,0.724465
1590066450718,-5.060883,-14.630641,-6.255091,0.0,0.0,2.0,-3.6211998,-2.7454,-4.8494,-0.17520499,-0.655021,0.728139
1590066450738,-2.451653,-14.525708,-6.7898793,0.0,0.0,2.0,-3.2863998,-5.4888,-7.7732,-0.161931,-0.653962,0.733954
1590066450761,0.56438035,-12.109144,1.0498383,0.0,0.0,2.0,0.988,-3.3200998,-1.6708,-0.140324,-0.658119,0.73721
1590066450780,2.1159475,-9.523723,3.1145213,0.0,0.0,2.0,3.2884998,-0.2024,2.2663999,-0.132455,-0.664841,0.733849
1590066450806,2.6339188,-8.640454,1.4923251,0.0,0.0,2.0,3.9562,1.0337,1.7379999,-0.151854,-0.668622,0.725824
1590066450826,3.2221742,-9.362315,-0.9894374,0.0,0.0,2.0,4.032,0.6648,0.1599,-0.184273,-0.668729,0.71538
1590066450846,3.134211,-9.193792,-1.9092513,0.0,0.0,2.0,4.7619,0.32729998,-1.6661999,-0.20882499,-0.667785,0.706235
1590066450867,1.3940287,-8.600269,-4.7549996,0.0,0.0,2.0,3.9002998,0.75979996,-2.942,-0.21731,-0.666913,0.702377
1590066450887,0.4041508,-7.6148543,-5.170537,0.0,0.0,2.0,1.8302,1.9433,-5.0695,-0.207211,-0.672746,0.699562
1590066450910,0.5883894,-7.00824,-5.8682175,0.0,0.0,2.0,1.4548,2.678,-5.3782,-0.205539,-0.68267,0.689275
1590066450929,-1.1006336,-6.211019,3.5921357,0.0,0.0,2.0,0.3629,3.1933,3.1181998,-0.214583,-0.69529897,0.67028
1590066450951,-3.4969041,-4.653792,-5.4689984,0.0,0.0,2.0,-2.289,4.8561997,1.9742999,-0.24034,-0.70278,0.644306
1590066450970,-6.310675,-5.3056273,-2.6152918,0.0,0.0,2.0,-5.6440997,5.1802,-5.0076,-0.274696,-0.6998,0.618885
1590066450991,-3.5787761,-7.3812947,5.4181356,0.0,0.0,2.0,-5.4674997,2.8079998,5.5754,-0.293738,-0.697487,0.603273
1590066451012,-1.4887722,-10.290777,1.1128154,0.0,0.0,2.0,-3.1086,2.0913,6.7976,-0.295532,-0.696954,0.601283
1590066451034,-1.4434929,-15.191669,1.7252425,0.0,0.0,2.0,-0.74109995,-3.541,-0.7425,-0.287761,-0.70095,0.601772
1590066451056,0.27697083,-17.465845,-3.2653465,0.0,0.0,2.0,0.162,-7.8346996,-1.2117,-0.287118,-0.725451,0.581518
1590066451075,2.1280527,-17.05207,1.9631975,0.0,0.0,2.0,1.9133999,-7.6267996,4.0915,-0.31375,-0.7295,0.558604
1590066451099,3.0641952,-17.318554,-1.6729149,0.0,0.0,2.0,3.579,-7.3476,2.0665998,-0.33973,-0.714459,0.555067
1590066451118,1.3075215,-16.03485,-1.3004538,0.0,0.0,2.0,1.847,-7.4707,0.5236,-0.338175,-0.707343,0.564433
1590066451140,-0.49822378,-13.687441,-1.0747572,0.0,0.0,2.0,0.2953,-4.5889997,1.0144,-0.335362,-0.705518,0.570834
1590066451159,-0.1801493,-11.84379,-0.30711862,0.0,0.0,2.0,-0.16759999,-2.872,1.4284999,-0.337689,-0.70021397,0.577506
1590066451181,1.0970423,-9.894824,0.30197585,0.0,0.0,2.0,1.3995999,-0.8235,2.0902998,-0.337321,-0.691587,0.590244
1590066451203,1.9038788,-7.7287607,-0.10163865,0.0,0.0,2.0,2.5095,1.0148,1.5322,-0.330789,-0.682057,0.608151
1590066451224,1.1093965,-5.6026425,-0.7112886,0.0,0.0,2.0,2.7479,3.0605,0.77239996,-0.319326,-0.672988,0.628069
1590066451244,-0.53502744,-2.831134,-2.5174744,0.0,0.0,2.0,1.4846,5.3984,-0.8143,-0.304569,-0.664617,0.647907
1590066451266,-1.98532,-2.5617766,-1.8151497,0.0,0.0,2.0,-0.4563,7.3610997,-2.0448,-0.278502,-0.655115,0.674738
1590066451285,-2.1884441,-4.03083,-1.5076288,0.0,0.0,2.0,-1.0978,6.2194,-1.6525999,-0.262523,-0.652164,0.687575
1590066451309,-2.1030285,-6.862481,-1.8390629,0.0,0.0,2.0,-0.73469996,4.0653,-1.8750999,-0.253442,-0.650122,0.695054
1590066451329,-2.447736,-10.246542,-2.8290079,0.0,0.0,2.0,-0.977,0.97819996,-2.7447,-0.250386,-0.648354,0.698937
1590066451348,-1.9620483,-13.374011,-2.608454,0.0,0.0,2.0,-0.9374,-2.4859998,-3.1622999,-0.249105,-0.648621,0.700947
1590066451369,0.06974789,-14.636042,-3.212674,0.0,0.0,2.0,0.5664,-4.7792,-3.1093,-0.248051,-0.650719,0.701931
1590066451391,3.1757362,-11.964007,-2.3930142,0.0,0.0,2.0,3.5728,-3.7519999,-3.4097,-0.245549,-0.653343,0.703205
1590066451412,4.6855583,-9.964045,-0.10597695,0.0,0.0,2.0,6.0014997,-1.0199,-1.1187999,-0.242332,-0.658581,0.702328
1590066451434,4.400141,-8.9304495,0.61748374,0.0,0.0,2.0,6.5663,0.5103,0.75049996,-0.253795,-0.663594,0.694125
1590066451454,3.289748,-8.504597,0.30146828,0.0,0.0,2.0,5.4245,1.0447,0.5496,-0.2646,-0.663708,0.688597
1590066451475,0.7609156,-7.738903,-1.1289523,0.0,0.0,2.0,3.0858998,1.5933,-0.4348,-0.266891,-0.665279,0.685297
1590066451496,-0.84598637,-7.046289,-1.7843124,0.0,0.0,2.0,1.6355,2.4589,-1.3241,-0.261667,-0.67046,0.68254
1590066451515,-1.6483024,-6.355935,-2.9416885,0.0,0.0,2.0,0.12709999,3.0151,-2.0449998,-0.256655,-0.678499,0.677006
1590066451536,-1.0669137,-6.12025,-3.9410188,0.0,0.0,2.0,0.4132,3.6476998,-2.9104,-0.255854,-0.68822,0.667628
1590066451558,-0.6905452,-7.5511785,-1.4936084,0.0,0.0,2.0,0.9712,2.666,-1.0214,-0.257882,-0.700298,0.654042
1590066451580,-3.1420927,-10.975787,-3.6750324,0.0,0.0,2.0,-0.4333,-0.1836,-0.3269,-0.26378,-0.714318,0.635498
1590066451600,-3.2565355,-11.951347,-4.024232,0.0,0.0,2.0,-1.9114,-1.9763999,-2.2028,-0.275977,-0.726995,0.61399597
1590066451622,-1.8885943,-11.850886,1.6690172,0.0,0.0,2.0,-0.7112,-2.5015,3.6034,-0.290709,-0.736012,0.595639
1590066451642,-1.2643588,-11.471052,0.7223402,0.0,0.0,2.0,0.218,-2.1671,4.1414,-0.285576,-0.744379,0.590136
1590066451665,-3.6601405,-12.65168,-4.4801836,0.0,0.0,2.0,-1.3908,-2.6129,-0.049999997,-0.285208,-0.754058,0.579056
1590066451685,-3.9040332,-14.687442,-3.4067576,0.0,0.0,2.0,-2.6797,-4.8152,-1.627,-0.285574,-0.760258,0.571652
1590066451705,-2.5737765,-15.121519,-1.3857256,0.0,0.0,2.0,-1.2888,-5.9525,1.4524,-0.280362,-0.762856,0.572561
1590066451726,-3.443226,-13.912792,-1.0750828,0.0,0.0,2.0,-1.2909,-5.3227997,2.0901,-0.274178,-0.761834,0.578154
1590066451748,-5.087554,-12.475869,-1.9147964,0.0,0.0,2.0,-2.812,-3.7733,1.4001,-0.267477,-0.759832,0.584547
1590066451768,-5.675445,-11.174228,-2.784878,0.0,0.0,2.0,-4.0056,-2.4575999,0.2038,-0.259559,-0.756983,0.592297
1590066451789,-5.1055875,-9.369622,-1.8634073,0.0,0.0,2.0,-3.764,-0.92359996,-0.0087,-0.24253,-0.750225,0.60922
1590066451811,-4.4401712,-7.712729,-0.8848299,0.0,0.0,2.0,-2.8555999,1.5148,1.1588,-0.229577,-0.745239,0.62122
1590066451830,-3.8258002,-6.1345477,-0.9599695,0.0,0.0,2.0,-2.185,3.1857998,1.0239999,-0.219703,-0.740905,0.630619
1590066451852,-3.1126728,-4.4384856,-1.9698056,0.0,0.0,3.0,-1.5871999,4.6759,0.032199997,-0.214954,-0.735826,0.638587
1590066451874,-2.0704288,-3.2862525,-2.1776319,0.0,0.0,3.0,-0.70059997,5.9316998,-0.68299997,-0.212934,-0.731663,0.6445
1590066451894,-0.37878186,-2.9967551,-1.4181911,0.0,0.0,3.0,1.0338,6.6064997,-0.1899,-0.211931,-0.728286,0.649197
1590066451916,0.47083414,-3.5366666,-0.32006648,0.0,0.0,3.0,2.2574,6.1322,0.6886,-0.211273,-0.72524,0.653244
1590066451934,0.8330577,-4.337154,0.9874837,0.0,0.0,3.0,2.8436,5.5547,1.9204999,-0.20912799,-0.722626,0.657168
1590066451956,0.33582988,-6.2034054,0.5267627,0.0,0.0,3.0,2.5377998,3.8439,1.9389,-0.206098,-0.721029,0.660086
1590066451979,-0.74044037,-8.6169615,-0.55482274,0.0,0.0,3.0,2.0412,2.2498999,1.1561999,-0.202702,-0.721708,0.660518
1590066451999,-2.3124828,-11.460488,0.095231764,0.0,0.0,3.0,0.81589997,0.23809999,0.7435,-0.197874,-0.725089,0.658467
1590066452020,-4.092591,-14.380408,-0.47230896,0.0,0.0,3.0,-0.99359995,-3.1292,1.4992,-0.185777,-0.731045,0.655891
1590066452042,-7.6741347,-17.82372,-6.6992927,0.0,0.0,3.0,-6.509,-10.449599,-5.4231,-0.172311,-0.731302,0.659542
1590066452061,-5.136942,-11.515728,-4.097188,0.0,0.0,3.0,-4.463,-4.1531,-4.2760997,-0.155774,-0.731239,0.664006
1590066452085,-2.8671713,-7.8541117,-1.571602,0.0,0.0,3.0,-1.7184999,0.5309,-1.0521,-0.147194,-0.73293,0.664167
1590066452105,-1.9265662,-5.5514646,-1.1412297,0.0,0.0,3.0,-0.7198,3.0296,0.2262,-0.154935,-0.734527,0.660483
1590066452125,-1.5795219,-5.2486644,-1.1732163,0.0,0.0,3.0,0.0379,4.2802997,0.1522,-0.170058,-0.735419,0.655147
1590066452146,-1.0884423,-5.181522,-0.9347059,0.0,0.0,3.0,0.37129998,4.2799997,0.5441,-0.183007,-0.737057,0.648959
1590066452168,-1.2212057,-5.1148863,-0.75400114,0.0,0.0,3.0,0.44709998,4.3922,0.997,-0.190166,-0.74342,0.639152
1590066452188,-1.3964708,-4.9912305,-0.78965557,0.0,0.0,2.0,0.3145,4.444,0.9932,-0.189781,-0.746743,0.635473
1590066452209,-1.7595371,-5.4545755,-1.2220293,0.0,0.0,2.0,0.0285,4.2612,1.3695999,-0.187987,-0.758942,0.621583
1590066452231,-3.2174146,-7.1730094,-3.7578912,0.0,0.0,2.0,-1.2263,2.7438998,-0.4874,-0.19094,-0.76791,0.60912
1590066452250,-3.9642618,-8.805299,-6.9548497,0.0,0.0,2.0,-2.5528,1.0160999,-3.3518,-0.196334,-0.778175,0.593416
1590066452271,-3.4988768,-11.172514,-3.455599,0.0,0.0,2.0,-2.3518999,-1.1205,-2.1104,-0.20109,-0.789594,0.576166
1590066452292,-4.1083546,-15.364895,-1.0985267,0.0,0.0,2.0,-2.4138,-4.8603,2.7159,-0.205081,-0.79807,0.563175
1590066452314,-5.5769005,-18.254015,-4.3663154,0.0,0.0,2.0,-4.0784,-8.8623,0.0273,-0.213489,-0.800199,0.556339
1590066452335,-1.797423,-14.723594,-5.129606,0.0,0.0,2.0,-2.7331,-7.6705,-1.9461999,-0.221434,-0.801085,0.55111897
1590066452355,1.4574176,-12.67951,-0.876364,0.0,0.0,2.0,1.6492,-4.3973,0.5674,-0.224536,-0.802816,0.548144
1590066452376,-0.80644375,-12.732211,-1.1832528,0.0,0.0,2.0,1.3692,-3.8544998,3.0936,-0.228438,-0.799717,0.552438
1590066452398,-3.3843093,-12.335512,-3.0954633,0.0,0.0,2.0,-1.3534,-3.4898,0.7026,-0.232304,-0.790798,0.562843
1590066582985,-0.10705912,-4.7991104,-0.31223264,0.0,0.0,2.0,0.79789996,4.8796997,0.2694,-0.218356,-0.70147,0.666239
1590066583006,0.8735101,-7.781261,-0.61014795,0.0,0.0,0.0,-0.23969999,1.9612999,-0.035499997,-0.561634,-0.461795,0.373513
1590066583028,1.7171885,1.2586126,8.333508,0.0,0.0,0.0,0.9657,10.7231,8.0494995,-0.237147,0.664585,-0.69151497
1590066583047,0.6049094,1.5338405,7.0463176,0.0,0.0,0.0,-0.363,11.238,6.9379997,-0.279537,0.629763,-0.695475
1590066583068,0.22160731,1.9848219,6.5569234,0.0,0.0,0.0,-1.2001,11.3516,5.6143,-0.293168,0.603161,-0.706923
1590066583089,0.99156344,2.5955732,6.597606,0.0,0.0,0.0,-0.8303,12.0685,4.9669,-0.298642,0.577975,-0.72144
1590066583112,1.8915917,2.7954507,7.5467153,426.0,2334.0,946.0,0.0047,12.2032995,5.0615997,-0.299509,0.552601,-0.738456
1590066583128,1.8915917,2.7954507,7.5467153,426.0,2334.0,946.0,0.0047,12.2032995,5.0615997,-0.299509,0.552601,-0.738456
1590066583148,0.0,0.0,0.0,0.0,0.0,0.0,0.0,0.0,0.0,0.0,0.0,0.0
1590066583169,0.0,0.0,0.0,0.0,0.0,0.0,0.0,0.0,0.0,0.0,0.0,0.0
1590066583189,0.52734685,3.2380908,7.6991305,0.0,0.0,0.0,-1.4398999,11.7807,4.5432997,-0.266145,0.48509,-0.79926
1590066583210,0.52734685,3.2380908,7.6991305,0.0,0.0,0.0,-1.4398999,11.7807,4.5432997,-0.266145,0.48509,-0.79926
1590066583231,1.0892756,4.0336456,7.7634,0.0,0.0,0.0,-0.7409,12.018,2.3999999,-0.221989,0.427888,-0.846806
1590066583251,1.0892756,4.0336456,7.7634,0.0,0.0,0.0,-0.7409,12.018,2.3999999,-0.221989,0.427888,-0.846806
1590066583272,0.11785219,3.9351003,7.5333366,0.0,0.0,0.0,-1.2465,12.006499,1.0948,-0.201977,0.383439,-0.872415
1590066583292,0.11785219,3.9351003,7.5333366,0.0,0.0,0.0,-1.2465,12.006499,1.0948,-0.201977,0.383439,-0.872415
1590066583313,0.9266901,4.5257115,6.9713597,0.0,0.0,0.0,-0.49839997,10.3574,-0.45839998,-0.151476,0.293562,-0.913695
1590066583331,0.77928394,4.656502,6.8798437,0.0,0.0,0.0,-0.44869998,10.0573,-1.3285999,-0.139582,0.25937,-0.923691
1590066583352,0.968378,4.493562,7.980334,0.0,0.0,0.0,-0.3759,9.304999,-0.894,-0.129697,0.227144,-0.931264
1590066583373,0.68772966,4.299498,8.740551,0.0,0.0,0.0,-0.14019999,8.5617,-0.114199996,-0.11998,0.196926,-0.936883
1590066583394,0.94571924,4.5901637,8.203665,0.0,0.0,0.0,-0.6597,6.3136,-1.0188,-0.079536,0.087892,-0.944342
1590066583414,0.1643859,4.670388,8.741077,0.0,0.0,0.0,-0.029199999,4.7894998,-1.7452999,-0.038669,-0.004094,-0.931207
1590066583435,-0.11521856,4.1687555,8.305026,311.0,1789.0,787.0,-0.3627,2.3673,-1.0526,0.021432,-0.096795,-0.882951
1590066583456,0.8072482,4.6583505,8.08382,311.0,1789.0,787.0,0.2874,2.1601999,-1.6200999,0.047357,-0.116842,-0.85882
1590066583477,0.500369,4.100415,8.56449,311.0,1789.0,787.0,0.46379998,1.4326,-0.8077,0.067521,-0.129455,-0.836643
1590066583498,3.0561602,4.380163,11.319939,311.0,1789.0,787.0,2.4542,1.2847999,-0.78459996,0.077428,-0.124487996,-0.829474
1590066583519,0.10402328,3.481198,7.562412,311.0,1789.0,787.0,0.9734,1.0368999,-0.8322,0.086492,-0.118675,-0.823269
1590066583538,-0.16769946,3.643726,9.133755,311.0,1789.0,787.0,-0.24859999,0.90459996,-1.3148999,0.091623,-0.118586,-0.818863
1590066583559,0.09054871,3.2404947,9.871916,311.0,1789.0,787.0,0.2979,0.40609998,1.0459,0.092001,-0.121913,-0.81447
1590066583580,-1.4139198,3.4453137,9.764149,311.0,1789.0,787.0,0.0867,0.2497,0.2929,0.092204,-0.124229,-0.81188
1590066583601,-0.64344645,3.1584022,9.413379,311.0,1789.0,787.0,-1.3917999,-0.2669,0.2516,0.094055,-0.132218,-0.80418
1590066583622,0.57317185,4.157589,7.9737163,311.0,1789.0,787.0,0.7687,0.9208,-1.4333999,0.10181,-0.136199,-0.798673
1590066583643,-0.4544099,4.5031004,9.200237,311.0,1789.0,787.0,-0.48799998,0.82839996,-0.1963,0.112466,-0.139072,-0.794393
1590066583665,0.40511808,3.4493837,11.277293,311.0,1789.0,787.0,0.034399997,-0.46379998,1.1005,0.131897,-0.145652,-0.790442
1590066583687,0.64398277,2.9164345,7.010117,311.0,1789.0,787.0,1.3319,-1.7531999,0.6907,0.149915,-0.150802,-0.789146
1590066583705,0.0048841713,6.9583354,10.20357,311.0,1789.0,787.0,2.6497998,3.4308,-1.0291,0.176404,-0.153006,-0.782196
1590066583726,-1.3829292,3.859817,8.756094,311.0,1789.0,787.0,-0.29369998,-0.8064,0.1551,0.185308,-0.153525,-0.776589
1590066583745,-1.4308898,4.7046256,10.15468,311.0,1789.0,787.0,-0.3875,-0.2499,0.3002,0.189802,-0.154217,-0.773756
1590066583768,-0.7517698,3.4694662,9.675132,311.0,1789.0,787.0,-0.1004,-1.2432,1.2645999,0.205321,-0.155958,-0.76586
1590066583787,-0.031105468,3.6994054,8.987067,234.0,1408.0,663.0,1.7038,-1.2413,0.5432,0.220573,-0.153445,-0.758901
1590066583808,-1.0205333,4.235879,8.559826,234.0,1408.0,663.0,1.0545,-0.91069996,0.21609999,0.23872,-0.143292,-0.751673
1590066583830,-1.517397,4.9950037,8.117369,234.0,1408.0,663.0,1.0127,-0.020299999,-0.070099995,0.257419,-0.129062,-0.745036
1590066583852,-3.1277564,6.0289063,7.93811,234.0,1408.0,663.0,-0.33139998,0.9111,-0.25149998,0.284065,-0.116099,-0.737379
1590066583871,-2.6326737,6.484992,7.712327,234.0,1408.0,663.0,-0.2886,1.0011,0.032199997,0.291406,-0.117168,-0.736174
1590066583892,-2.838805,6.5339007,7.391954,234.0,1408.0,663.0,0.16749999,1.0117999,-0.1131,0.311858,-0.126392,-0.733362
1590066583914,-3.684619,7.041108,6.365512,234.0,1408.0,663.0,0.012499999,1.3665,-0.6598,0.325146,-0.12703,-0.729839
1590066583935,-5.09737,7.4080625,3.3738325,234.0,1408.0,663.0,-0.9481,1.6132,-1.6015999,0.337914,-0.123089,-0.724943
1590066583954,-5.002311,8.222091,4.7459397,234.0,1408.0,663.0,-1.6636,3.0558999,-2.0268,0.348275,-0.119846,-0.71982
1590066583977,-4.885177,5.3307095,7.573894,234.0,1408.0,663.0,-1.4582,0.436,-0.1175,0.351295,-0.118734,-0.717719
1590066583996,-3.702949,5.946948,6.884546,234.0,1408.0,663.0,-0.3813,-0.38099998,-0.113,0.348498,-0.117419,-0.717442
1590066584017,-4.14647,6.877871,6.6778593,234.0,1408.0,663.0,-0.46559998,1.152,-0.4423,0.345205,-0.117383,-0.716973
