@ HyperIMU - ianovir
@ Date:Sat Jun 13 12:31:50 GMT+02:00 2020, Sampling Rate:20ms

timestamp,Linear_Acceleration.x,Linear_Acceleration.y,Linear_Acceleration.z,Rotation_Vector.x,Rotation_Vector.y,Rotation_Vector.z
1592044310556,0.0,0.0,0.0,0.0,0.0,0.0
1592044310577,0.0,0.0,0.0,0.0,0.0,0.0
1592044310598,0.0,0.0,0.0,0.0,0.0,0.0
1592044310619,0.0,0.0,0.0,0.0,0.0,0.0
1592044310639,0.0,0.0,0.0,0.0,0.0,0.0
1592044310660,0.0,0.0,0.0,0.0,0.0,0.0
1592044310680,1.9096138,-0.8431902,-2.5493202,0.23997656,-0.1232478,-0.7388572
1592044310701,1.7441199,0.002418995,-0.59634876,0.21992235,-0.12808715,-0.73760176
1592044310722,2.5156734,0.06601381,-0.32305813,0.20229124,-0.13278455,-0.73884743
1592044310743,2.1723123,-0.5730033,1.8910704,0.18220085,-0.12941281,-0.7490965
1592044310763,1.6297554,0.007671833,-0.0847826,0.18026288,-0.1285246,-0.75282264
1592044310784,0.544099,-0.095600605,-1.9455547,0.18870403,-0.1273657,-0.7496985
1592044310805,0.93810296,0.0031218529,-1.35565,0.19251159,-0.12826449,-0.747842
1592044310825,0.5929234,0.40117025,-0.44751453,0.19541925,-0.13068444,-0.7466093
1592044310846,1.1706582,0.43045998,0.37861824,0.19439727,-0.13377993,-0.7485313
1592044310867,1.0060807,-0.38006687,1.038907,0.19057329,-0.13550545,-0.75578713
1592044310888,0.1314944,-0.5667238,0.7296114,0.19039,-0.1324091,-0.76219714
1592044310909,-0.09964323,-0.7079544,-0.18389702,0.19321743,-0.12832674,-0.7683333
1592044310929,-0.21262217,-0.2423358,-0.089063644,0.1940348,-0.12776469,-0.77377737
1592044310950,0.7914485,-0.0670948,-1.0626535,0.19178401,-0.13547423,-0.77613723
1592044310971,1.0090834,-0.22897053,-1.0983591,0.18963122,-0.14264861,-0.77769095
1592044310990,0.6470921,-0.6564789,-1.7532415,0.18829675,-0.14863592,-0.77923536
1592044311011,0.45419055,-0.7930999,-1.5362911,0.18355617,-0.16100506,-0.78123736
1592044311032,1.1619484,-1.2830691,0.26830482,0.17668721,-0.17011109,-0.78514254
1592044311053,0.620287,-2.1830382,-1.4181938,0.17182435,-0.18119635,-0.7888329
1592044311074,0.1690144,-2.1299272,-3.8657827,0.1711671,-0.1911549,-0.7875919
1592044311095,-0.6551491,-2.500946,-4.2581925,0.16981713,-0.20246017,-0.78435105
1592044311116,-0.363049,-5.682655,-3.7273111,0.14250895,-0.24369046,-0.7819873
1592044311139,-0.37371027,-5.012894,-2.1175632,0.10614946,-0.284922,-0.7759802
1592044311158,-1.7105715,-6.6923714,-0.6344948,0.070096485,-0.3132242,-0.7692406
1592044311179,-2.0901337,-7.538781,0.31212664,0.028721182,-0.33609945,-0.7591429
1592044311201,-1.5512264,-7.5525436,-1.480856,-0.015255255,-0.36526406,-0.73764044
1592044311221,-2.1656551,-7.328728,-2.7104573,-0.06352271,-0.40346128,-0.70336354
1592044311241,-0.13104439,-6.5776944,0.35225582,-0.1243849,-0.44205758,-0.65877146
1592044311265,6.497424,-3.9383633,4.613455,-0.21086597,-0.48048154,-0.59046596
1592044311284,7.488749,-0.7077614,5.478061,-0.25789285,-0.5022261,-0.52926594
1592044311303,8.811286,1.7777648,2.8310647,-0.2803388,-0.51969105,-0.46772045
1592044311325,10.796829,4.567999,-0.24965763,-0.2856108,-0.53210413,-0.410796
1592044311346,13.899319,7.509875,0.96868634,-0.27911085,-0.53660214,-0.35657322
1592044311368,14.43212,8.301564,-0.14409137,-0.26232684,-0.53962255,-0.32469586
1592044311387,10.36333,6.851334,-4.273322,-0.23796709,-0.55065435,-0.29566866
1592044311410,6.3994837,4.906615,-5.937678,-0.21133648,-0.5666391,-0.2649146
1592044311429,5.5039825,3.7125418,-4.8336163,-0.200084,-0.5737991,-0.2506457
1592044311450,4.678547,3.0907612,-4.591424,-0.18774238,-0.5825261,-0.23615314
1592044311482,1.1796398,1.2942568,-6.687831,-0.16729175,-0.6020876,-0.2154221
1592044311499,0.22119236,-0.080622315,-5.7625885,-0.16417328,-0.60900825,-0.21207799
1592044311519,-2.4988832,-1.0951893,-2.13185,-0.16501284,-0.6150832,-0.21127027
1592044311538,-3.148367,-1.6738669,-0.33680117,-0.16960311,-0.6176381,-0.21229522
1592044311558,-3.0590029,-0.9148705,0.2595135,-0.17295001,-0.62471324,-0.20541547
1592044311578,-1.5018721,0.57229507,-0.9221399,-0.17099269,-0.6368499,-0.18929732
1592044311598,-0.94586277,2.0707848,-1.6488186,-0.16630596,-0.649547,-0.1711133
1592044311621,-0.010471344,3.3142436,-0.84422493,-0.15979263,-0.6592511,-0.15424237
1592044311640,-0.17732811,2.5511758,-1.0936657,-0.15489328,-0.6624982,-0.14637539
1592044311662,-0.3015337,1.7451454,-0.7017001,-0.15065253,-0.66417265,-0.14124222
1592044311682,1.3154078,1.7729139,0.22203225,-0.1471119,-0.6659051,-0.13606557
1592044311703,2.2249784,1.8522084,-1.3082186,-0.13875492,-0.67179215,-0.12605548
1592044311724,1.4685898,1.6852138,-1.6389093,-0.13065578,-0.6776938,-0.11853265
1592044311747,0.13701534,0.58600295,-0.11422345,-0.12630267,-0.6800883,-0.11640316
1592044311779,-1.7735825,-1.2780784,-0.39598352,-0.123442665,-0.67627144,-0.11550531
1592044311796,-1.7397938,-0.82747066,-0.45877272,-0.1253937,-0.6734651,-0.11335054
1592044311816,2.024331,0.85031855,-0.8591161,-0.13006191,-0.66742694,-0.10710345
1592044311838,2.800293,3.292183,-0.80402607,-0.13215,-0.6613192,-0.100813605
1592044311858,1.827733,2.2768576,-0.25179315,-0.13216324,-0.6554036,-0.09782929
1592044311879,0.14007187,0.17696953,0.13129091,-0.13133784,-0.6485441,-0.0959655
1592044311905,-1.4039526,-0.094221234,-0.11993694,-0.13688555,-0.64048,-0.09494158
1592044311923,0.24872208,-1.4123993,0.25471604,-0.14990993,-0.6261835,-0.08988288
1592044311942,-4.0673866,-0.4648031,3.0780458,-0.16064188,-0.6154251,-0.08326614
1592044311963,-0.7228489,-0.9882145,-0.7658746,-0.1589168,-0.6199964,-0.061255086
1592044311983,-2.9308796,-1.559281,0.3251016,-0.15273508,-0.63714784,-0.031433612
1592044312004,2.4703474,-0.040974855,-0.9527513,-0.1534188,-0.6462439,-0.008162896
1592044312025,-0.30396366,-2.5498416,-0.5544245,-0.16849841,-0.643484,0.0025777912
1592044312044,-2.2998514,-5.0661564,-1.2990527,-0.18094963,-0.63673663,0.010636422
1592044312065,-2.9745312,-5.0200944,-0.77026236,-0.19985902,-0.6272913,0.026341539
1592044312086,-1.7225323,0.039199352,0.69667053,-0.2213183,-0.62178165,0.051605545
1592044312108,-2.4972143,4.915519,-0.7349739,-0.22888607,-0.6267566,0.07464191
1592044312129,-1.5582113,7.140846,0.16173118,-0.22752625,-0.6568328,0.10766791
1592044312150,-0.8025646,1.4054193,4.1095448,-0.22331367,-0.68261534,0.13416186
1592044312172,-3.3992724,-6.2203355,2.749018,-0.23662986,-0.6773913,0.17096037
1592044312194,-1.247138,-2.2676744,-3.5764816,-0.2746465,-0.6433347,0.22141685
1592044312214,-2.0871544,-3.625111,-3.1838934,-0.3007168,-0.6236334,0.24816635
1592044312234,-2.5169744,-4.791516,1.0208477,-0.31515637,-0.6221222,0.26110536
1592044312255,0.04123783,-2.6137514,2.4233797,-0.3483499,-0.61481947,0.2917754
1592044312276,3.8711572,0.08136368,-0.23360391,-0.36944062,-0.60277057,0.3180343
1592044312298,3.5396018,-1.1933451,0.21500067,-0.38316157,-0.5932936,0.33548585
1592044312318,4.9767275,-3.6470022,-1.3308337,-0.39715302,-0.5818448,0.34404814
1592044312339,2.8920417,-1.4754515,-0.4572935,-0.40474135,-0.57781315,0.34375638
1592044312360,-0.5970073,-0.77944756,-0.04624771,-0.40577865,-0.57657653,0.3404056
1592044312382,-1.4728317,0.8612795,-0.05182995,-0.4052712,-0.57561874,0.33893216
1592044312401,-0.8959751,1.8363714,1.0708494,-0.4059657,-0.57532585,0.34010336
1592044312422,-0.81397676,1.4754562,0.6145256,-0.4111194,-0.57125705,0.3426869
1592044312443,-1.1648464,-0.7811079,-0.34594354,-0.42303076,-0.5647692,0.34840798
1592044312462,0.81329703,-0.90881443,0.12751782,-0.4385434,-0.55760807,0.36442602
1592044312483,1.5805593,-0.82719517,0.75118124,-0.4499963,-0.5517567,0.39411163
1592044312504,0.6837064,-1.8466558,-0.28188136,-0.45578167,-0.54932576,0.43953833
1592044312525,0.61979675,0.11221123,-0.38466722,-0.4508988,-0.5564833,0.497968
1592044312546,3.1951709,3.9703379,1.8838336,-0.42929485,-0.5706719,0.57047546
1592044312569,0.9543493,1.8307543,4.3660583,-0.40124413,-0.5812537,0.6170927
1592044312587,-1.6093827,-0.8419428,5.465527,-0.37876475,-0.5875667,0.64377
1592044312608,-4.011849,-1.6887035,4.5174317,-0.37350616,-0.59146386,0.64415157
1592044312628,-6.7776585,-3.7102556,-6.3563423,-0.38046452,-0.5911364,0.6312504
1592044312649,-3.9175496,-1.336936,-5.4100347,-0.36848602,-0.5948207,0.63863504
1592044312668,2.152544,0.59115505,-4.050663,-0.35174394,-0.5986933,0.6519748
1592044312688,2.3105924,0.5324316,-1.9494294,-0.34926105,-0.60613227,0.65125245
1592044312709,-3.5644832,-1.9598017,-0.7036753,-0.35708222,-0.61151874,0.6448225
1592044312730,-3.8834286,-0.1585331,-0.7794203,-0.37281704,-0.6182774,0.62963164
1592044312751,-1.9644874,3.2662792,-2.0135875,-0.383828,-0.6240456,0.61906147
1592044312771,-0.7500073,4.516781,-3.4466982,-0.39426064,-0.63479704,0.60490525
1592044312792,0.80891097,5.208996,-0.9393767,-0.40165287,-0.65297896,0.5885824
1592044312812,2.185237,4.8274584,4.323063,-0.40968698,-0.67126656,0.57260984
1592044312833,5.270469,0.74895287,6.5623307,-0.4251194,-0.6819882,0.5533812
1592044312853,0.6657175,-5.3467684,-0.35370684,-0.42951998,-0.6924715,0.53924215
1592044312874,-7.0513005,-13.472953,3.4576042,-0.40672684,-0.69848037,0.55749345
1592044312894,-3.142484,-14.401955,1.8421211,-0.3879543,-0.68841934,0.5893421
1592044312915,1.0122874,-9.362242,2.395889,-0.38616374,-0.68205553,0.597633
1592044312936,-3.2497628,-7.222089,-0.84935427,-0.40775922,-0.6648351,0.59055114
1592044312957,-3.1320033,-6.7895775,-5.012824,-0.41788805,-0.6551752,0.5878525
1592044312977,-1.4674227,-2.379634,-2.242049,-0.4141864,-0.65118515,0.594924
1592044312998,0.24003768,2.0431747,0.3701588,-0.41202298,-0.6479797,0.5994309
1592044313019,0.35192537,5.249856,1.4705493,-0.41395047,-0.64418095,0.60030484
1592044313040,1.1715808,7.5217237,1.2395759,-0.41981274,-0.6390255,0.59931
1592044313063,2.7384446,8.790103,0.6092347,-0.43030205,-0.632137,0.5961588
1592044313080,3.4202793,9.095836,0.69054353,-0.43554154,-0.62930644,0.59407973
1592044313102,3.2606027,7.6087933,1.2584761,-0.44293538,-0.6255473,0.590338
1592044313123,2.5461206,6.638608,0.83588326,-0.4464411,-0.6230253,0.5881077
1592044313144,1.6892298,6.573388,0.21769083,-0.4458813,-0.62234414,0.58681554
1592044313169,1.5308063,7.4326544,-0.4487704,-0.44291735,-0.62415767,0.5846908
1592044313189,0.815189,7.246644,0.17822719,-0.43972835,-0.6287016,0.5816015
1592044313208,-0.01842761,5.3457165,1.1116585,-0.43959972,-0.633774,0.57588965
1592044313227,-1.0338104,1.9911213,2.0844734,-0.4427392,-0.6390962,0.56789637
1592044313250,-2.6095767,-1.9044914,1.4016778,-0.44647443,-0.6429869,0.5617885
1592044313271,-5.5008564,-11.495479,-10.891933,-0.4366534,-0.66448975,0.56376123
1592044313290,2.1050618,-13.076441,5.6443233,-0.43470675,-0.67423046,0.56394583
1592044313313,2.8769076,-10.185535,8.6151705,-0.45644197,-0.66450953,0.55104136
1592044313332,-4.828022,-12.757274,-5.229374,-0.46756968,-0.6547138,0.54367363
1592044313353,1.9830931,-13.205771,0.059144735,-0.45787787,-0.64657474,0.5604086
1592044313375,2.750721,-10.730101,-2.7424345,-0.45035157,-0.6351573,0.5729944
1592044313398,1.9365964,-5.9977074,-2.2488766,-0.4436756,-0.6294621,0.57958215
1592044313420,0.47272313,-1.7765903,-2.1946263,-0.42923287,-0.6251524,0.5907024
1592044313438,-2.9748168,1.7903023,-3.5278544,-0.41570705,-0.6251814,0.5988792
1592044313459,-3.8352091,5.561802,-2.447843,-0.4033035,-0.6279923,0.6056549
1592044313480,-3.487656,8.8167515,-1.3574305,-0.3966945,-0.62940925,0.6098505
1592044313499,-2.1332746,11.178192,-1.0021057,-0.39813727,-0.6277186,0.6106028
1592044313520,-0.414114,12.093254,-0.7933166,-0.40616646,-0.6234397,0.6078748
1592044313541,1.709707,11.465522,-0.3201816,-0.41890195,-0.6177928,0.60167617
1592044313562,3.6814165,9.700172,0.30788016,-0.433526,-0.6131415,0.59240144
1592044313584,3.9647603,8.145285,0.5207926,-0.44625062,-0.6118606,0.58152103
1592044313605,2.6638355,6.874276,1.1091285,-0.4532322,-0.61529684,0.5718105
1592044313626,1.3604655,6.379695,1.3351172,-0.4511676,-0.6199543,0.5704391
1592044313651,1.6707515,5.602729,-0.21363282,-0.44280943,-0.6263361,0.5742602
1592044313670,2.0968914,2.9567184,-0.18465269,-0.43008873,-0.6335013,0.5807001
1592044313690,1.4381875,-3.2577581,2.5678267,-0.41582492,-0.6417392,0.5851577
1592044313712,0.4000734,-12.605285,3.818348,-0.40765795,-0.64991426,0.58221817
1592044313733,-3.5686383,-15.981553,0.13247728,-0.40377054,-0.6586594,0.5761032
1592044313752,-8.528383,-12.138666,-0.095793486,-0.3934608,-0.66186184,0.5844987
1592044313774,-9.94295,-9.402415,-2.1321816,-0.38477796,-0.65966004,0.59866214
1592044313795,-5.922987,-10.41521,-1.6235951,-0.38698938,-0.65814626,0.60243624
1592044313816,-1.5358652,-6.5035114,-0.25102866,-0.40537265,-0.65296525,0.59429395
1592044313838,-1.2842578,-2.0106049,0.41569698,-0.42075935,-0.6442134,0.5904984
1592044313857,-0.4247787,0.8965368,2.0711007,-0.43591145,-0.6329091,0.5886564
1592044313882,0.9085655,3.4506226,2.8753095,-0.45389926,-0.61987185,0.58465415
1592044313901,1.1071894,4.9063835,2.9695086,-0.47753534,-0.60488987,0.5752983
1592044313925,1.802722,5.1807375,2.6680377,-0.4888637,-0.5968488,0.5712903
1592044313944,2.7669833,4.499011,1.6518368,-0.49603292,-0.5843079,0.5761065
1592044313967,3.4645064,3.8162985,0.20343041,-0.49260524,-0.5726176,0.5899854
1592044313986,3.3011281,3.1212072,-0.44330466,-0.4890001,-0.566122,0.5982898
1592044314008,2.9920104,2.7954435,0.22624135,-0.48862585,-0.56232995,0.6012863
1592044314027,2.5022187,2.6622458,1.0609909,-0.49059913,-0.56094426,0.6000756
1592044314049,1.6874998,2.4593763,1.015165,-0.4932285,-0.5610753,0.59631073
1592044314070,0.05975008,1.5212231,-1.3790398,-0.4941946,-0.564915,0.59019786
1592044314092,-1.025888,0.13089561,-3.5980115,-0.49357197,-0.57302004,0.58308244
1592044314114,-0.6988745,-2.285468,-2.6923661,-0.4947327,-0.5875905,0.56994224
1592044314132,-1.5200145,-4.403941,-4.2121425,-0.49533102,-0.5983822,0.5611492
1592044314154,-2.7524664,-4.994337,-4.0701265,-0.4928261,-0.62149566,0.5490724
1592044314175,-1.5836678,-2.0687017,-1.5979574,-0.488871,-0.6415309,0.54138005
1592044314197,-0.3368137,3.550912,3.147171,-0.4894055,-0.6533828,0.5339873
1592044314216,-2.214232,6.064212,0.14669561,-0.49570665,-0.6530228,0.5270257
1592044314238,-3.7446058,-1.4734383,-2.009554,-0.49098748,-0.64714175,0.5378648
1592044314260,2.801931,-10.495204,0.15466213,-0.48566556,-0.6369403,0.5542349
1592044314280,3.6951764,-9.265804,-2.157701,-0.4859954,-0.62495,0.5618588
1592044314302,2.056185,0.28657055,-2.399195,-0.47567582,-0.6219157,0.5712646
1592044314322,2.3182707,2.585164,-1.0780379,-0.45962036,-0.6232701,0.5845339
1592044314344,2.753405,3.3334732,-0.46017373,-0.44185266,-0.62220776,0.6000755
1592044314364,2.4194734,3.487773,-0.4199947,-0.42603505,-0.61947227,0.6124453
1592044314385,0.99495995,3.342474,0.1850611,-0.40980056,-0.61734074,0.6209789
1592044314407,0.12386906,3.1198034,1.730666,-0.4032822,-0.6156522,0.621962
1592044314428,-1.1337494,2.7827206,2.0556273,-0.40472662,-0.61272883,0.6179292
1592044314452,-1.3515306,2.554801,2.0481672,-0.4116267,-0.6097624,0.61034137
1592044314472,-2.661422,-0.5847807,-0.10378116,-0.41716522,-0.61062527,0.60142946
1592044314492,-3.3983955,-6.4350386,0.9124018,-0.40579337,-0.62002444,0.60536116
1592044314514,-0.47088695,-5.423156,2.6751688,-0.38774523,-0.6309955,0.61623317
1592044314533,1.3305131,-1.4225388,1.4832764,-0.37422037,-0.63782984,0.62483984
1592044314556,2.4641268,-0.28135395,1.9314332,-0.36487147,-0.6400079,0.63094145
1592044314575,0.8177552,-0.22872543,1.2454433,-0.36467144,-0.6375909,0.630934
1592044314596,-0.35929096,0.22893143,-0.3354082,-0.3715094,-0.633989,0.62661904
1592044314617,-0.41488135,1.3374414,-1.3101882,-0.3765796,-0.6325823,0.62329185
1592044314637,0.47314394,3.015602,-1.4683816,-0.37685016,-0.63558376,0.6222071
1592044314658,1.6661984,3.9874315,-5.6510115,-0.37018272,-0.64950264,0.6200019
1592044314679,0.82646215,2.4932537,-2.9194212,-0.36922392,-0.66856384,0.60770756
1592044314700,0.31146014,1.1425457,-0.08772826,-0.38352564,-0.6853349,0.58315265
1592044314720,2.4518309,-0.50581646,2.398376,-0.39954582,-0.69636875,0.558874
1592044314741,4.248278,-1.8326559,3.0747037,-0.4013044,-0.70844036,0.54345435
1592044314762,2.066702,-0.16470242,3.3211343,-0.38917142,-0.7308602,0.5303258
1592044314781,-0.8290529,0.1778841,3.9370084,-0.38627434,-0.7432425,0.51898146
1592044314802,-6.4881554,-2.7190056,-1.4226665,-0.38584435,-0.75523967,0.50585407
1592044314823,-8.746885,-4.8022385,-3.0663943,-0.37626436,-0.7607506,0.51073414
1592044314844,-5.2825465,-4.118305,0.71904325,-0.36901507,-0.7628071,0.5167721
1592044314865,-0.5123068,-1.503891,0.47922707,-0.3684087,-0.7582641,0.522522
1592044314886,-2.4945416,-2.3130083,-0.02551055,-0.36757696,-0.7427552,0.5411438
1592044314907,-4.062024,-4.5739965,-0.18342805,-0.36700228,-0.72538763,0.5616277
1592044314928,-3.552264,-4.7122316,-0.3953638,-0.36923686,-0.71070725,0.5759387
1592044314950,-1.7232186,0.17758465,-0.07535243,-0.37527704,-0.6869773,0.594365
1592044314967,-1.0030441,3.8737507,0.0035384893,-0.38322765,-0.6674885,0.6055602
1592044314988,0.13360596,5.7058935,-0.64896977,-0.39491943,-0.64691293,0.61428964
1592044315009,1.5963504,5.929941,-1.1807271,-0.40952387,-0.62762445,0.61910915
1592044315033,4.701969,4.2753077,-0.16661632,-0.42881867,-0.6078875,0.6190905
1592044315053,5.2990828,1.9167242,1.1466451,-0.44009283,-0.59643084,0.6161146
1592044315074,5.738755,1.122098,1.4393799,-0.4473213,-0.5883667,0.609311
1592044315095,4.668494,-0.124708176,1.6104368,-0.44686246,-0.5888489,0.6018825
1592044315116,2.075029,-3.0997934,0.46660924,-0.44334975,-0.5942425,0.5938681
1592044315138,-1.5820615,-3.5901842,-4.687432,-0.44249952,-0.60041094,0.58590263
1592044315159,-3.3660955,-1.7707119,-8.403525,-0.44242772,-0.6083999,0.57942677
1592044315180,-1.0971224,2.2453651,-2.5174646,-0.45301637,-0.6185038,0.5615958
1592044315200,0.40763736,5.339546,2.7867527,-0.476203,-0.62257284,0.5328971
1592044315221,1.5380818,7.15147,1.6919711,-0.49664506,-0.62720525,0.5057834
1592044315245,0.45409727,4.6250725,3.4679787,-0.504483,-0.6370233,0.48858333
1592044315265,1.4821091,-0.7600622,1.552999,-0.5052941,-0.64458674,0.4814843
1592044315285,1.3064957,-7.623416,-2.0020664,-0.49805632,-0.6489988,0.4874399
1592044315304,2.6263268,-8.05434,-0.9078355,-0.49225652,-0.6495203,0.49512762
1592044315326,0.2506122,-4.5391636,-1.0248387,-0.49224067,-0.65140325,0.49490687
1592044315349,-1.496808,-5.2837296,-0.16710639,-0.4863308,-0.6542671,0.50253415
1592044315368,0.317477,-5.6981583,-0.31465507,-0.47631377,-0.65304255,0.516585
1592044315392,2.6497045,-4.40895,0.34274435,-0.46687153,-0.65025693,0.53033763
1592044315412,3.4821875,-2.8464231,1.8103225,-0.45718127,-0.6465563,0.543684
1592044315431,1.8034729,-1.8584194,2.2562501,-0.44612187,-0.6418172,0.5573066
1592044315454,-0.21512711,-0.98302555,-0.19886267,-0.43086836,-0.6344556,0.5751103
1592044315474,-0.73471713,1.0641928,-3.0326784,-0.41447666,-0.6303712,0.5920735
1592044315495,-0.13031065,3.6489725,-4.5897684,-0.3950613,-0.62993824,0.6098414
1592044315516,-0.83877206,5.260749,-2.5859973,-0.37981477,-0.6331657,0.62086684
1592044315538,-0.9042494,5.331607,-0.7662877,-0.37309924,-0.63922733,0.6230256
1592044315558,-1.1298805,4.3498726,0.5214946,-0.37208712,-0.64281857,0.62190384
1592044315580,-0.65253425,1.9040747,2.673666,-0.37181148,-0.6481187,0.62053967
1592044315598,0.62480974,1.0235071,3.15584,-0.37372378,-0.6501024,0.6192456
1592044315619,1.1780275,-1.0427675,2.8548946,-0.3756288,-0.65434486,0.6161247
1592044315641,-0.22521865,-3.5770388,4.625275,-0.37078542,-0.65995544,0.6158032
1592044315665,-2.4741912,-2.9784832,3.4885702,-0.35836604,-0.65933853,0.6248328
1592044315684,-3.3885324,-0.82738304,2.0971956,-0.34981206,-0.65545535,0.6340696
1592044315704,-3.3131816,0.5273857,1.4289789,-0.34727502,-0.6514798,0.63911235
1592044315726,-2.5286317,1.782752,-0.38341165,-0.34326977,-0.64701205,0.6457764
1592044315745,-1.317791,2.0675192,-1.0595429,-0.33638072,-0.64670056,0.6524724
1592044315767,-0.31184566,2.5805922,-0.8199965,-0.32603216,-0.6501338,0.6592826
1592044315788,1.4442341,3.8671436,-1.2913914,-0.31446037,-0.6563696,0.66424984
1592044315808,3.0100174,4.981662,-3.5859714,-0.30234072,-0.66566336,0.66551566
1592044315830,2.23315,6.156356,-1.0747228,-0.29343626,-0.68170726,0.6565853
1592044315850,1.4662929,6.760502,-0.26372683,-0.29516664,-0.6934738,0.6436184
1592044315871,2.0737047,5.3395004,0.2074976,-0.29599735,-0.7033417,0.6326619
1592044315894,0.66201687,2.0306244,-1.2979494,-0.28788438,-0.71294594,0.62764287
1592044315914,-4.0168753,-2.9536324,-2.4288244,-0.27773505,-0.72507954,0.62138474
1592044315933,-6.370833,-7.5451345,0.8912647,-0.27973065,-0.72891194,0.61696386
1592044315954,-6.78335,-17.272865,2.7486656,-0.3051984,-0.7217939,0.61223733
1592044315976,-2.989057,-13.5459385,0.26134443,-0.32799703,-0.71342397,0.6082164
1592044315998,-4.129464,-7.8014402,-1.1351824,-0.33076695,-0.71311563,0.6065125
1592044316015,-2.8725686,-5.6074696,-1.584379,-0.33105898,-0.71102995,0.60954297
1592044316037,-0.6897478,-4.392993,-0.12206912,-0.3347871,-0.704121,0.61549777
1592044316060,-0.63986754,-2.1830797,0.96639156,-0.34286457,-0.6949112,0.6197818
1592044316081,-0.90991807,1.0051298,2.2378254,-0.35395113,-0.6835653,0.6231051
1592044316100,-0.9999387,4.3150625,2.1502264,-0.36771944,-0.6706953,0.6248938
1592044316122,-0.079021454,6.325408,1.9516723,-0.38783818,-0.65257275,0.6257737
1592044316143,1.2080419,8.083041,1.5847121,-0.4041949,-0.63685685,0.62686855
1592044316165,2.7765179,9.088187,1.2243758,-0.41732505,-0.6207975,0.63058686
1592044316184,4.570356,8.8147335,0.5190254,-0.42321727,-0.6062318,0.63867676
1592044316205,6.1884804,7.372183,-1.731085,-0.41697174,-0.59407324,0.6537343
1592044316226,6.7603273,4.802184,-3.1338615,-0.4077156,-0.5914031,0.66224515
1592044316246,4.7945786,-0.7151661,-3.4270668,-0.39284775,-0.59251314,0.6689034
1592044316267,1.6675835,-5.2668743,-1.6255165,-0.38734388,-0.5969426,0.6650497
1592044316289,-1.4439371,-8.607943,0.8684092,-0.39238498,-0.60165787,0.6522184
1592044316308,-5.1662273,-10.29887,2.2024667,-0.40776592,-0.60483277,0.6324278
1592044316329,-4.5876517,-3.6034765,1.4187157,-0.42699802,-0.60195446,0.61527866
1592044316351,-2.025041,1.4031,0.7500938,-0.44394648,-0.59497756,0.60341847
1592044316373,-0.6001786,1.6147738,1.4070017,-0.45482662,-0.59328145,0.59403884
1592044316393,0.93477356,1.7753105,2.7212234,-0.46615556,-0.5947109,0.58303404
1592044316414,2.048189,3.5513878,2.7746696,-0.477194,-0.59798366,0.57001925
1592044316434,2.1017635,6.2315474,0.31548655,-0.47922003,-0.6017223,0.5648439
1592044316455,2.4464815,8.265386,-7.3887744,-0.4715771,-0.6104979,0.5663925
1592044316477,-0.263206,6.8677807,-2.1404917,-0.4623144,-0.62721837,0.5653
1592044316497,0.66166747,5.6853456,1.7713883,-0.47306383,-0.63565606,0.5501369
1592044316518,-2.021471,0.9292908,-3.7024546,-0.48613054,-0.640735,0.53445023
1592044316539,-1.0231369,-4.7397747,-3.7663202,-0.47898164,-0.6498572,0.5398544
1592044316563,0.4784205,-8.386011,1.1692791,-0.47585377,-0.65514386,0.54203796
1592044316583,0.20410514,-6.7235775,-3.0168095,-0.4871317,-0.6555268,0.5326421
1592044316602,0.7751086,-7.211173,-4.5930414,-0.4912809,-0.657585,0.5283613
1592044316624,1.516998,-7.083165,-2.702265,-0.4897148,-0.6589068,0.530585
1592044316642,1.6734493,-5.9918203,-1.6206114,-0.48690253,-0.6586939,0.5340411
1592044316663,1.6032858,-3.3727198,-0.9328549,-0.4738638,-0.6560109,0.5486237
1592044316684,1.028928,-2.8769007,-0.9554267,-0.46224168,-0.65347666,0.5603734
1592044316707,2.0159273,-1.9903316,-0.9270487,-0.44610313,-0.6495739,0.5756348
1592044316728,2.399726,-0.14311123,-1.388799,-0.43269977,-0.6474986,0.58642006
1592044316747,1.9235535,1.9145298,-1.1098449,-0.4181978,-0.6482056,0.59568095
1592044316769,0.7221693,3.9592543,-1.1920706,-0.40301722,-0.6513534,0.60368997
1592044316792,-0.08763564,4.9040613,-1.0988542,-0.388414,-0.65587336,0.61026466
1592044316812,-0.6302537,4.804594,0.57032335,-0.373803,-0.66156447,0.61504555
1592044316831,0.19980764,5.172147,1.3474898,-0.36947164,-0.66544086,0.6138149
1592044316855,-0.038306117,4.6124544,1.8435866,-0.37197095,-0.67187494,0.6049928
1592044316875,-0.058268905,3.9729996,1.9978033,-0.3757061,-0.67673546,0.5974861
1592044316896,-0.1047349,3.1678,2.3771904,-0.37722555,-0.6876576,0.5867771
1592044316915,-0.33082724,3.127205,3.1759014,-0.37032968,-0.69715315,0.58452535
1592044316936,-0.8006698,2.5480022,3.9385052,-0.35780597,-0.7063193,0.5863999
1592044316958,-0.7441366,1.8678827,3.8131442,-0.34811816,-0.7132081,0.5870069
1592044316979,1.3501062,0.81387806,0.72131515,-0.3329416,-0.7262394,0.58429366
1592044317000,1.5482085,-2.030735,-0.5915868,-0.31172055,-0.7408795,0.5826967
1592044317022,-1.5896748,-4.174447,0.2638328,-0.29456314,-0.7517688,0.5806484
1592044317043,-4.630573,-6.1864033,0.20604324,-0.2867214,-0.75819886,0.57739764
1592044317062,-6.9556613,-10.385882,-0.16097116,-0.28455538,-0.7599952,0.57652426
1592044317084,-8.793767,-11.113098,-2.1593163,-0.28233805,-0.7581964,0.5812729
1592044317105,-5.135204,-7.4270487,-1.8804376,-0.28293657,-0.7553655,0.5853827
1592044317127,-1.4260314,-4.407813,-1.3348234,-0.28762132,-0.75050545,0.58858544
1592044317147,0.6914959,-2.0895529,-1.1389873,-0.29523784,-0.7424417,0.5935001
1592044317168,2.301646,1.7402992,-1.132643,-0.30240473,-0.73162913,0.6020365
1592044317190,3.0311613,4.709281,-0.66453147,-0.30253652,-0.72524,0.6102043
1592044317211,3.3734126,6.937562,1.0432439,-0.30091956,-0.7206439,0.61754584
1592044317231,3.011516,8.253306,2.3595886,-0.30122054,-0.7161392,0.623391
1592044317253,3.0725904,8.187802,2.939165,-0.30564833,-0.71087265,0.6272509
1592044317270,2.763369,7.196107,2.7530158,-0.3081931,-0.70902866,0.62761
1592044317292,2.8501582,6.1831617,2.2260332,-0.30844355,-0.7086487,0.62768495
1592044317315,0.778697,2.0422573,-3.1066458,-0.29166886,-0.71771413,0.6277091
1592044317334,-3.4757648,-4.6113977,0.032116175,-0.27333632,-0.72717595,0.62713265
1592044317356,-8.29721,-15.274449,4.9128036,-0.26347315,-0.728468,0.63035256
1592044317377,-7.120246,-6.770602,-2.392734,-0.2837969,-0.71623385,0.632953
1592044317398,-2.5986526,-0.18979931,-1.4697402,-0.30681637,-0.7030901,0.6329051
1592044317420,-0.26996803,1.2426147,0.2701515,-0.32733244,-0.6893429,0.633689
1592044317441,2.0628219,2.9245024,1.0357342,-0.348644,-0.6769479,0.6320664
1592044317460,2.9537747,4.3698416,1.7576283,-0.37366074,-0.66524744,0.62599546
1592044317485,3.2241745,5.305357,2.5366192,-0.38914686,-0.65871835,0.6204451
1592044317502,3.3237424,5.324394,2.6878371,-0.40203586,-0.65280503,0.6149901
1592044317524,3.4784498,5.210183,2.3759155,-0.41417214,-0.64679635,0.608047
1592044317545,0.42720962,3.560686,1.2456878,-0.426327,-0.6400746,0.59822553
1592044317567,-1.6180704,2.2449627,-2.4840465,-0.43172044,-0.6370074,0.5937375
1592044317586,-3.6173873,-0.10759926,-7.2168374,-0.43094984,-0.6405808,0.5927032
1592044317609,0.38478708,-2.8815908,2.6067328,-0.433185,-0.64770824,0.58854496
1592044317632,-1.9919112,-9.405981,0.77894855,-0.45209524,-0.64489895,0.57488066
1592044317652,0.3585503,-13.583177,-1.8836603,-0.46986657,-0.63611287,0.56572425
1592044317674,5.6855536,-2.4832888,-0.50436044,-0.4958692,-0.61961573,0.55166614
1592044317692,5.521664,-0.85903263,-0.22619677,-0.50716,-0.6105273,0.5459933
1592044317714,3.5986176,-2.088152,3.9272275,-0.51336753,-0.6005249,0.5464737
1592044317735,2.6995103,0.20018673,2.053929,-0.5143021,-0.5913947,0.5498003
1592044317757,1.3066926,1.4124308,-0.062015772,-0.51328665,-0.5827958,0.5514439
1592044317776,-1.1665509,1.9997768,-5.3616886,-0.5109052,-0.57743776,0.55166245
1592044317797,-1.9926347,4.246605,-5.1920867,-0.50464016,-0.5816788,0.55383766
1592044317819,-0.37342358,5.6052485,-5.1738777,-0.5035948,-0.58766323,0.5525288
1592044317840,0.11277914,3.271718,-4.8128033,-0.50864047,-0.59101474,0.54707885
1592044317865,1.204742,-0.085240364,1.9788742E-5,-0.51466614,-0.5919779,0.5434048
1592044317885,0.8861406,-3.5721617,1.5097435,-0.51269644,-0.59351414,0.5466774
1592044317907,2.0959303,-8.846217,2.1064339,-0.50537324,-0.59596974,0.55512494
1592044317926,4.404154,-7.811516,0.65288734,-0.49852395,-0.5983575,0.56098723
1592044317947,2.198936,-2.649929,-3.4115992,-0.4819895,-0.6060099,0.5706531
1592044317969,-0.092408895,-0.8153324,-3.2032795,-0.46432796,-0.6154059,0.579633
1592044317991,-1.1868224,1.0315762,-2.6023114,-0.4443099,-0.6253276,0.5899033
1592044318011,-0.4807384,2.6578197,-2.318013,-0.42556274,-0.63430494,0.5991358
1592044318032,0.84010696,3.8867226,-1.6264384,-0.40579376,-0.6454676,0.6073285
1592044318054,1.7581825,4.530792,-0.4072367,-0.39149043,-0.65588677,0.6114271
1592044318074,1.8977306,4.890297,0.49577165,-0.37791687,-0.667456,0.61328274
1592044318095,2.025036,5.1919804,0.19691801,-0.36331955,-0.68220013,0.6124622
1592044318115,2.270068,4.721916,-0.77802896,-0.35272104,-0.6957528,0.6084076
1592044318136,2.861634,4.1288576,1.1092765,-0.33950126,-0.7122073,0.6020067
1592044318158,2.7785156,1.3129854,3.9566257,-0.32286456,-0.72708225,0.59753895
1592044318178,0.78170514,-2.804202,5.5998354,-0.30416164,-0.7374208,0.59745324
1592044318200,-2.9398384,-8.717421,6.9510946,-0.28793153,-0.74671817,0.5952385
1592044318220,-6.442395,-9.86091,2.8188014,-0.28648424,-0.7532586,0.5873657
1592044318242,-4.302932,-7.5025663,-3.7046,-0.28016138,-0.7583172,0.58496636
1592044318261,-2.7123616,-6.4038296,-1.203624,-0.25601724,-0.76108533,0.5948191
1592044318284,-1.3847408,-2.08953,0.1481247,-0.23751247,-0.760408,0.6041937
1592044318303,0.20493364,1.1704149,0.8938763,-0.2356654,-0.7568077,0.60942006
1592044318328,1.9987917,3.2317562,1.9813948,-0.2369174,-0.7476532,0.6200706
1592044318345,2.344703,4.612504,2.3713639,-0.2370626,-0.7419162,0.6268719
1592044318367,1.9269569,6.1867733,3.0985696,-0.23491915,-0.7349905,0.6358839
1592044318390,1.5491145,6.5421925,3.3805919,-0.23278198,-0.7323326,0.6397757
1592044318409,1.096762,5.903404,2.5896595,-0.22838597,-0.72904503,0.6451267
1592044318431,0.83737946,4.179615,1.2436528,-0.22381794,-0.72759825,0.64834523
1592044318451,-0.023000956,2.2030811,0.70527005,-0.21583301,-0.7281586,0.65042424
1592044318473,-1.863158,-2.34869,0.70987606,-0.19737639,-0.7310861,0.65308106
1592044318492,-5.727847,-6.06275,0.5861702,0.18225963,0.7327398,-0.6556475
1592044318514,-11.303783,-10.212544,-0.03888631,0.16707277,0.73110366,-0.6614473
1592044318531,-11.551786,-6.728486,-3.7187805,0.16760333,0.7271296,-0.6656742
1592044318553,-3.0759034,-1.2192888,0.7063693,0.18641873,0.72038543,-0.6680515
1592044318574,2.2822738,-0.9552965,2.1585317,-0.21732374,-0.71345085,0.665774
1592044318596,4.8418207,0.19164562,2.4943423,-0.26015002,-0.706317,0.6553453
1592044318617,3.7374315,2.5681238,3.546675,-0.28791472,-0.7033589,0.6427793
1592044318640,3.296073,4.7381325,3.537825,-0.31422016,-0.6991466,0.62875634
1592044318659,2.9446297,5.419421,3.3522701,-0.33936352,-0.6918017,0.6150515
1592044318682,2.339103,5.2271023,1.9019941,-0.36381674,-0.6797252,0.6026483
1592044318702,1.7531165,4.845666,2.6158986,-0.37523726,-0.67017883,0.59854156
1592044318722,0.6597794,4.0902147,0.6586486,-0.37911487,-0.66176146,0.59934133
1592044318743,-1.1092713,0.72618675,-1.6128229,-0.37022611,-0.65827656,0.60819674
1592044318764,-1.2259755,-4.0464087,-2.2438474,-0.3539945,-0.66093117,0.6210112
1592044318786,-1.653553,-6.8905935,-3.91761,-0.34991613,-0.66754806,0.62157106
1592044318807,-0.7234819,-8.633331,-2.3609145,-0.35491967,-0.6713946,0.61677146
1592044318827,2.5057797,-9.09856,-5.1093144,-0.3684047,-0.6671419,0.61119914
1592044318848,5.6850524,-2.7649546,0.9568393,-0.38830796,-0.65768886,0.603286
1592044318869,5.228855,-1.9296713,2.543593,-0.40147448,-0.6513738,0.59538436
1592044318892,2.1771903,-3.1894293,1.7607601,-0.40732533,-0.64692235,0.5902676
1592044318911,0.12404728,-1.6718788,-0.94958615,-0.40310943,-0.6432017,0.5941517
1592044318933,-0.44278896,1.412283,-2.5211287,-0.38271603,-0.64229006,0.6101109
1592044318950,-0.6260377,3.0478868,-3.5283766,-0.367239,-0.6439798,0.62060004
1592044318971,-0.92793703,3.6664906,-3.9805727,-0.3528351,-0.6472782,0.6290332
1592044319000,-0.32857096,1.8944454,-3.7036524,-0.34317267,-0.65589523,0.63196594
1592044319018,0.76114845,-0.39809227,-1.736252,-0.35132444,-0.6590174,0.6249078
1592044319039,1.5810665,-0.7271843,-0.9088056,-0.3597256,-0.661725,0.61673564
1592044319059,0.65363276,0.5525017,0.702984,-0.36100176,-0.66732156,0.61185783
1592044319078,1.1121007,1.8594503,0.9354136,-0.3576643,-0.6752403,0.6093661
1592044319099,0.6355915,2.5059977,0.58366597,-0.35314056,-0.68428403,0.6069577
1592044319121,0.035529852,3.3599358,-5.589019,-0.34849787,-0.695251,0.60310924
1592044319142,0.35445035,4.1754208,0.5034692,-0.3414193,-0.7176841,0.5902726
1592044319161,1.8843162,3.7802563,8.147444,-0.34493536,-0.73002505,0.5764806
1592044319183,3.7752779,3.6231956,7.608487,-0.348003,-0.73522794,0.5685383
1592044319204,1.2906013,0.74795437,0.7151995,-0.33717528,-0.74575645,0.5636965
1592044319226,2.0538778,-4.8900127,0.94550276,-0.31219205,-0.7666575,0.5558121
1592044319245,-0.67233515,-5.5248957,3.932732,-0.29680395,-0.7771228,0.55246526
1592044319266,-4.5736475,-6.7167234,3.819018,-0.29013523,-0.7768413,0.5570277
1592044319288,-7.6655307,-10.5737915,-4.4815354,-0.28912437,-0.7702341,0.56633127
1592044319309,-6.615081,-8.204078,-3.7396011,-0.28321585,-0.7659814,0.575369
1592044319331,-2.4967275,-2.597783,-0.73775053,-0.27173632,-0.76453507,0.58301526
1592044319350,1.1365387,2.49086,0.7063482,-0.2696885,-0.7598544,0.58954203
1592044319374,2.3990297,6.2009344,2.397332,-0.2712207,-0.75232404,0.59755296
1592044319394,2.1998928,7.9650507,2.550344,-0.2751484,-0.74371666,0.6052064
1592044319413,2.0792477,8.552317,1.5381193,-0.28078052,-0.73665035,0.6100065
1592044319435,3.4299235,8.522129,2.1323407,-0.2858908,-0.7345152,0.61011916
1592044319458,4.182806,6.867547,1.8364968,-0.28502327,-0.73756087,0.6078103
1592044319478,3.2680883,3.9273863,-0.9123447,-0.27268758,-0.74353325,0.60788316
1592044319498,0.528528,1.6206026,0.8716395,-0.2503461,-0.74900156,0.6124486
1592044319521,-2.9504476,-6.818591,2.69723,-0.22801812,-0.7515895,0.6186763
1592044319540,-11.402607,-22.084757,2.0341697,-0.2239871,-0.7495686,0.6224883
1592044319562,-8.217453,-12.164612,-5.2591763,-0.23755358,-0.74208754,0.6258203
1592044319579,-4.457447,-1.5262241,-3.0518587,-0.24509859,-0.734788,0.6307839
1592044319604,-0.5832882,1.558198,-0.8695339,-0.25389382,-0.72610384,0.6364798
1592044319626,2.3771355,3.4045372,0.613181,-0.2759918,-0.7135658,0.6392952
1592044319645,3.5924459,4.694768,2.080609,-0.3018579,-0.7037275,0.6352064
1592044319665,4.1879473,6.1065474,2.7981448,-0.33077282,-0.69501925,0.62548244
1592044319687,4.6311417,6.960513,2.714079,-0.35733756,-0.6887517,0.61164564
1592044319707,3.180426,7.3793945,2.4168358,-0.37664905,-0.6842919,0.5968774
1592044319728,0.19328451,5.012089,2.517441,-0.3766001,-0.6811959,0.5953512
1592044319749,-2.2547987,1.6199169,-0.8675779,-0.37104166,-0.67837816,0.5989297
1592044319771,-4.1576214,-1.4774904,-1.8371625,-0.35416862,-0.68073606,0.6101366
1592044319789,-4.6002455,-9.035916,-9.267551,-0.33651096,-0.6873637,0.6204065
1592044319811,2.402271,-12.790611,5.0950394,-0.32785228,-0.7083918,0.6119042
1592044319832,3.3260162,-2.3170595,7.7510605,-0.35237324,-0.70555013,0.5979388
1592044319854,2.0835123,-0.1028862,-1.7879789,-0.38912305,-0.68969834,0.582456
1592044319875,2.6070256,0.69328594,1.2431297,-0.38862926,-0.68391085,0.5881894
1592044319895,2.9573383,-0.6569557,-2.7248225,-0.37685543,-0.68040323,0.6004877
1592044319916,1.6792626,-0.60100365,-1.9119508,-0.36693394,-0.6778743,0.6090024
1592044319937,-0.3769524,0.98995304,-2.0665483,-0.36591724,-0.6727841,0.61199355
1592044319959,-2.0403976,1.412077,-0.97907555,-0.36802346,-0.66754127,0.6126283
1592044319978,-2.7370858,0.8538456,-1.315338,-0.37021872,-0.66263413,0.61355495
1592044320004,0.12435186,-0.35202217,-2.5002732,-0.36824146,-0.658841,0.6187117
1592044320023,2.100346,-0.60740185,-2.5000308,-0.36359015,-0.65727717,0.62391955
1592044320042,2.0179408,-0.78557014,-2.0767379,-0.36100143,-0.6566104,0.6255957
1592044320063,1.2264434,-1.0665646,-1.7739334,-0.36200273,-0.6573307,0.6236606
1592044320085,0.45084858,-0.10023975,-1.4873986,-0.36375433,-0.66088426,0.619666
1592044320104,-0.033659816,0.86300564,-1.2052824,-0.3630006,-0.6646406,0.6177612
1592044320125,0.32654583,1.6035557,-1.3094637,-0.36095044,-0.6727076,0.61506814
1592044320147,1.7582028,2.3529978,-0.433506,-0.36067197,-0.6809092,0.61091506
1592044320169,2.1416993,2.7971277,2.5340958,-0.36285943,-0.69033676,0.6029209
1592044320189,2.5899491,2.5785341,4.63972,-0.3683945,-0.69941854,0.59123755
1592044320210,1.9846895,2.1076279,5.5208273,-0.37504262,-0.71151847,0.5736819
1592044320232,0.29127562,0.77547646,0.5214515,-0.371266,-0.7278539,0.5582149
1592044320252,-1.2676775,-2.1248674,-4.9404755,-0.35622495,-0.74249417,0.5542728
1592044320275,-2.7120802,-4.5157843,5.4005566,-0.31694904,-0.76479214,0.5577322
1592044320294,-1.0376687,-3.0670872,3.5339212,-0.30292556,-0.7726876,0.5566051
1592044320315,-1.0600076,-2.6943493,1.9145417,-0.3023029,-0.7755563,0.55286247
1592044320337,-1.7261603,-3.6850681,0.3984356,-0.3031739,-0.77320445,0.55486274
1592044320358,-3.727349,-4.6464376,-1.8232052,-0.29917267,-0.76612383,0.5657062
1592044320377,-3.8558948,-3.4916859,-2.1071892,-0.28939074,-0.760627,0.57811487
1592044320398,-1.8417678,-0.13794708,-1.6999729,-0.27557516,-0.7561407,0.59103674
1592044320418,-0.33581138,3.154316,-0.69606113,-0.26238897,-0.7520089,0.6027125
1592044320440,1.1517367,5.6406307,0.16629314,-0.2543043,-0.7476451,0.6119365
1592044320460,2.4471128,6.6416254,1.0943561,-0.25135228,-0.7427907,0.61927867
1592044320482,3.3415983,5.798114,1.9791842,-0.25238425,-0.7399146,0.62241006
1592044320502,2.4759593,4.382264,3.1414926,-0.25053465,-0.738941,0.62453896
1592044320524,0.73635244,4.1790743,2.7959085,-0.24474251,-0.7392911,0.6266334
1592044320543,-0.20857,3.5015879,0.8159845,-0.24030161,-0.7401063,0.627489
1592044320565,-1.3702464,1.5605774,-0.72286344,-0.23730904,-0.74241495,0.6260965
1592044320588,-2.9963794,-3.690689,-1.1893854,-0.23324092,-0.74671227,0.6228492
1592044320607,-4.37156,-10.0948925,-1.3523624,0.23052548,0.7485344,-0.6217333
1592044320632,-4.58039,-8.854114,-4.1762867,0.23465823,0.7493866,-0.61915684
1592044320649,-3.4216363,-5.8570595,-4.172271,-0.23896198,-0.7500705,0.6166656
1592044320675,-0.29339147,-1.8923426,-1.9513323,-0.2564805,-0.7487766,0.6109313
1592044320695,0.4998324,-0.7098837,-0.18092155,-0.2611808,-0.74575377,0.61255634
1592044320714,1.0409489,1.1585217,1.323664,-0.26639065,-0.7419011,0.61485416
1592044320734,1.4410758,3.2593946,2.590093,-0.27656958,-0.73751324,0.61516494
1592044320756,1.6877599,4.8958654,3.4875162,-0.29098836,-0.73202586,0.6138736
1592044320775,2.0087175,5.97801,3.5105515,-0.30616337,-0.7248385,0.61286664
1592044320796,1.241509,6.277561,2.9073246,-0.31896618,-0.71686864,0.6127821
1592044320816,0.9086077,5.095895,2.2510598,-0.32905227,-0.7096482,0.6126119
1592044320838,-0.16218495,2.8860922,1.0673783,-0.33565688,-0.70383596,0.6126792
1592044320857,-2.3239586,0.82517624,-3.0559328,-0.33089563,-0.6994842,0.6194033
1592044320878,-2.6883037,-0.48439598,2.2246408,-0.31572878,-0.699122,0.63059276
1592044320899,-4.134481,-7.2993097,-10.338235,-0.312523,-0.7020037,0.6307415
1592044320921,-3.2142887,-7.2763796,-2.520398,-0.31295076,-0.71813446,0.61591214
1592044320943,3.8334584,-1.3844261,5.34567,-0.34343755,-0.7167855,0.59900504
1592044320962,4.0746346,-5.1447535,-1.9024575,-0.36886498,-0.7046708,0.59328145
1592044320984,4.829645,-6.1630287,-1.4758565,-0.37233382,-0.69742924,0.59841365
1592044321005,4.1828227,-4.218113,-1.9398026,-0.36371782,-0.6918094,0.6103317
1592044321026,2.472267,-1.4176378,-0.31012726,-0.35569963,-0.6860695,0.62023956
1592044321046,2.403084,0.21891975,-0.053898573,-0.35143378,-0.6800779,0.627166
1592044321068,0.95972943,0.5065937,-1.3220613,-0.3471875,-0.67489034,0.6323121
1592044321087,-1.352936,0.74348354,-3.0866036,-0.34115002,-0.67180526,0.6366086
1592044321108,-1.9768314,1.6482162,-2.7267995,-0.33225715,-0.67142004,0.64127636
1592044321130,-1.0473076,3.7759,-3.0864363,-0.3240686,-0.6745561,0.6432812
1592044321151,-0.63409555,4.3003397,-2.5326524,-0.32255116,-0.6782748,0.6410291
1592044321174,-0.23266208,4.372101,-2.3315825,-0.3299419,-0.6858701,0.6296064
1592044321193,0.23752022,4.524605,-3.0243428,-0.34168077,-0.6937916,0.6147963
1592044321215,1.1468487,3.4701786,2.2133589,-0.35900417,-0.70476556,0.5931939
1592044321235,1.3985612,0.6213083,5.088769,-0.37480888,-0.7103329,0.5759591
1592044321257,0.022132874,-2.933632,5.017126,-0.3843765,-0.71619695,0.5608538
1592044321276,-0.75309205,-6.96647,2.369428,-0.38271242,-0.7239733,0.55342126
1592044321298,1.3680403,-8.652885,0.28352356,-0.36517936,-0.7305203,0.56302583
1592044321320,2.4811575,-6.9293795,-0.8647902,-0.34208924,-0.73392314,0.5783989
1592044321340,-3.7443984,-3.404049,-0.23943663,-0.3325367,-0.7371245,0.58056355
1592044321362,-4.2648964,-0.82227325,-0.81026244,-0.334352,-0.73788583,0.5769796
1592044321384,-2.893486,1.1219959,0.21527553,-0.33166966,-0.7365964,0.5786828
1592044321404,0.31087327,4.0190554,0.8403537,-0.32757276,-0.7320518,0.5851619
1592044321423,0.7817526,4.9424915,1.7123218,-0.32415622,-0.73003554,0.58948874
1592044321444,1.3527343,5.4168434,2.3878326,-0.3190754,-0.72837347,0.5954369
1592044321464,1.6779444,5.05622,3.0616274,-0.31561887,-0.72872293,0.5984962
1592044321487,0.72448444,3.9807835,2.4583993,-0.3121048,-0.7300968,0.6000718
1592044321507,-0.4305904,3.3101664,1.0614452,-0.3051404,-0.73240745,0.60217065
1592044321526,-0.49065375,2.8932095,0.28101778,-0.29565576,-0.7343713,0.60579664
1592044321547,-0.5702586,1.684947,-0.3272965,-0.283278,-0.7368059,0.6103023
1592044321569,-1.064708,0.10844898,-0.46658993,-0.27423614,-0.7389641,0.6128595
1592044321591,-2.0288367,-6.0862713,-1.6862717,-0.26554313,-0.74185914,0.6142435
1592044321611,-4.252645,-11.164136,-1.6327391,-0.2641128,-0.74111384,0.61595076
1592044321634,-5.90629,-8.812616,-2.918678,-0.2645666,-0.738024,0.6193352
1592044321654,-4.558284,-3.3794308,-2.4302006,-0.26839685,-0.73634046,0.6193706
1592044321676,-1.9021425,-1.0018139,0.25975585,-0.28022414,-0.7331979,0.61714077
1592044321695,0.34908128,0.0364151,1.5108895,-0.2911035,-0.72782123,0.6175625
1592044321717,1.402581,1.4265337,2.1428256,-0.29906788,-0.72146165,0.620321
1592044321738,1.8306694,3.2011557,2.623024,-0.30406764,-0.7158361,0.6237358
1592044321760,1.6317089,4.485876,2.4167995,-0.3088662,-0.70881927,0.628621
1592044321780,2.1678476,4.995922,2.3002844,-0.31309208,-0.70190924,0.6334309
1592044321804,2.959451,5.3652735,1.4846178,-0.31766167,-0.6912474,0.6410999
1592044321823,2.0764978,4.906708,-0.29425466,-0.31874287,-0.6845989,0.64641035
1592044321843,0.97593236,4.52929,-1.556287,-0.31744438,-0.6782256,0.65225565
1592044321866,-0.67238426,2.7985106,-1.5986402,-0.31296813,-0.67583185,0.65594375
1592044321883,-0.1847074,0.23583508,0.008171558,-0.30784312,-0.67608005,0.65751916
1592044321905,-0.40183115,-3.7227736,-0.26061773,-0.30712065,-0.678253,0.65492207
1592044321926,-4.9239492,-9.423917,-3.7164516,-0.30527422,-0.682624,0.6511216
1592044321947,-1.1629641,-6.157012,-2.8632417,-0.30219662,-0.6863363,0.65021074
1592044321969,4.4234047,-2.8393173,-0.7968466,-0.31303298,-0.68397135,0.64685845
1592044321988,6.0919704,-2.054121,1.0009134,-0.32993165,-0.679942,0.6391003
1592044322010,4.6449013,-1.2645025,2.1881566,-0.3433073,-0.6775969,0.62965536
1592044322032,1.2902269,0.2345438,2.062251,-0.34881723,-0.6750068,0.62545335
1592044322053,-0.9446862,1.5727177,-0.61154795,-0.34422362,-0.66960585,0.63175005
1592044322073,-2.2275214,1.5288172,-1.7560416,-0.33313787,-0.6672682,0.64100456
1592044322095,-2.5093622,0.8537979,-2.1572118,-0.31149855,-0.66471285,0.6579693
1592044322115,-0.21429706,-0.26410675,-3.0139027,-0.3047689,-0.6631714,0.66433626
1592044322138,1.7291447,-1.2116718,-2.0010185,-0.31385258,-0.6613561,0.66100127
1592044322157,2.6535046,-1.3312397,-0.6279514,-0.32555962,-0.6592229,0.6551024
1592044322178,1.8320699,-0.8068943,0.12686479,-0.33424404,-0.65821254,0.64925116
1592044322202,0.48151922,-0.3480959,1.0415565,-0.33972302,-0.6595642,0.6432315
1592044322221,-0.70808554,0.56040573,1.0861146,-0.34448305,-0.6631899,0.6358243
1592044322240,-1.3777034,1.1141834,0.5107709,-0.3462921,-0.6670431,0.6310596
1592044322261,-1.5524448,2.254797,-1.7642778,-0.3450866,-0.6720429,0.6284912
1592044322283,-0.18273878,3.2898273,-6.7858124,-0.33798593,-0.68163514,0.62703586
1592044322300,-0.6878197,2.9552784,-1.0288148,-0.33364418,-0.6988886,0.6158859
1592044322322,0.14302802,2.8782463,4.566185,-0.35113755,-0.7129117,0.59116685
1592044322343,0.55758166,1.6565104,5.3388157,-0.3678515,-0.72033,0.5722367
1592044322365,-0.89441943,-1.6640806,2.954397,-0.3679965,-0.7262029,0.5667728
1592044322387,1.7238588,-3.554411,0.69503975,-0.35666728,-0.735149,0.56612056
1592044322406,1.9296544,-6.6290255,-1.6321292,-0.35171062,-0.7427067,0.5602997
1592044322428,-1.5207763,-6.9012566,-2.3375752,-0.34783393,-0.7488138,0.55455214
1592044322450,-1.1126316,-2.5885363,-2.0590317,-0.33984908,-0.7512987,0.55615526
1592044322469,-1.3165538,-0.58166313,-0.20093942,-0.3284268,-0.7515778,0.5628623
1592044322490,-1.6896877,2.0102062,1.7379944,-0.31960768,-0.7495973,0.56982017
1592044322510,-1.6169994,3.8035278,2.068391,-0.31587598,-0.7459993,0.5751305
1592044322533,-1.1661674,4.423126,1.675219,-0.31399888,-0.7417008,0.5804936
1592044322552,-0.5424751,4.294566,1.285969,-0.31230897,-0.73944443,0.5845483
1592044322574,0.65983164,4.144103,1.2164776,-0.30587673,-0.7355629,0.594692
1592044322594,1.2213464,4.1910152,0.9097798,-0.2985057,-0.7321946,0.60420907
1592044322615,1.9476218,4.1154976,0.5973985,-0.28976518,-0.7304854,0.61205626
1592044322637,1.2636545,1.1020079,-6.442815,-0.26730946,-0.73539513,0.6195977
1592044322656,-2.2835722,-0.08412361,-5.230334,-0.2535769,-0.74280715,0.6182999
1592044322678,-3.8469193,-3.667426,5.399403,-0.24889365,-0.7472359,0.6156836
1592044322699,-4.914257,-7.650564,0.6630013,-0.2658805,-0.73985666,0.61668533
1592044322719,-4.604005,-10.93996,0.7908704,-0.28630033,-0.7323649,0.6148564
1592044322741,-1.0246518,-5.407385,1.7525673,-0.30374923,-0.7226735,0.61552715
1592044322761,0.060501337,-1.5587845,1.9505708,-0.30964854,-0.7160791,0.618966
1592044322784,0.7784467,-7.0858E-4,1.8186679,-0.3131916,-0.7057348,0.6272773
1592044322804,1.3120899,1.333971,1.3874472,-0.31395274,-0.69038737,0.6411649
1592044322824,1.9406347,2.8021812,0.85435843,-0.31316197,-0.6767879,0.65325725
1592044322845,1.0836346,3.800499,0.48762828,-0.31025305,-0.6627286,0.6658271
1592044322868,0.41548133,4.659401,-0.954751,-0.3061643,-0.64412653,0.68148494
1592044322888,0.2386061,5.168436,-2.1385586,-0.30484805,-0.63078284,0.69047475
1592044322908,-0.12903821,4.935091,-3.2559056,-0.30613223,-0.6216064,0.69386035
1592044322929,-1.0565526,3.9192743,-4.4065433,-0.30814478,-0.6177397,0.6932589
1592044322951,-2.1287038,1.8738985,-2.4325376,-0.31110913,-0.6202492,0.6888729
1592044322971,-1.993661,-0.31930637,0.4092902,-0.32154235,-0.62418383,0.6798299
1592044322993,1.9097614,-2.2061625,2.0600207,-0.33839062,-0.6247323,0.6685656
1592044323013,6.2872334,-4.7093267,3.9584596,-0.35271135,-0.62051934,0.65978825
1592044323036,2.3445966,-12.269594,2.7966921,-0.3605206,-0.61406875,0.6550927
1592044323056,4.5248775,-1.7408066,0.48677027,-0.37288684,-0.5954508,0.6543947
1592044323075,3.4190307,2.7703447,0.38705373,-0.37536004,-0.58768827,0.65505755
1592044323097,-0.03051138,-1.2826796,0.31073856,-0.37916502,-0.5831123,0.65199125
1592044323120,-2.7317023,-3.1487017,-0.83155084,-0.38205957,-0.58066213,0.64860874
1592044323135,-2.7844968,-0.7111416,-1.4905574,-0.3809308,-0.5809175,0.6481933
1592044323159,-0.77583826,3.1527853,-2.2303388,-0.3801651,-0.5830745,0.6468048
1592044323180,-0.18492472,3.844471,-2.0938797,-0.38660884,-0.58580565,0.64022815
1592044323204,-0.6636511,4.6399975,-1.3753359,-0.40485907,-0.5897769,0.6239655
1592044323223,-0.6335914,4.5827923,-4.8790007,-0.42277113,-0.593838,0.6077186
1592044323243,0.79648316,1.7814169,-8.71597,-0.43058,-0.60440737,0.59840053
1592044323265,2.631994,-1.7820234,-0.61196923,-0.43344522,-0.61521184,0.59418344
1592044323284,3.2812362,-4.755925,4.0099783,-0.4468576,-0.6128488,0.58694303
1592044323305,2.0398035,-7.662284,3.1064973,-0.46233034,-0.60590196,0.5783936
1592044323326,4.155183,-4.4352903,4.3500056,-0.46528164,-0.6055753,0.5778257
1592044323349,3.0839071,-1.8644886,3.7460756,-0.4581857,-0.6070167,0.5837815
1592044323366,1.9381478,-2.6848536,1.3103645,-0.44334218,-0.6077471,0.59482443
1592044323388,-1.8708686,-4.0038795,-3.0950477,-0.41890407,-0.60828507,0.612568
1592044323410,-2.1748796,-0.5935869,-5.2723913,-0.39552587,-0.6136224,0.6272955
1592044323429,-1.5021389,2.5609655,-4.780607,-0.3762267,-0.62331676,0.63570774
1592044323451,-0.4901749,4.9210453,-2.5312173,-0.369265,-0.6348284,0.63351685
1592044323473,0.49838197,5.4516363,-0.8957368,-0.3725324,-0.6420732,0.626824
1592044323492,0.9713955,4.87595,0.012220144,-0.3804633,-0.6483934,0.6169911
1592044323514,1.8445383,4.6928377,0.43746877,-0.39101064,-0.65598065,0.60367745
1592044323536,1.4737746,3.762844,1.7613358,-0.39805615,-0.67093176,0.5873909
1592044323554,0.62316537,1.0097485,-0.18754911,-0.39323884,-0.68329036,0.5824103
1592044323576,-2.0270715,-3.9761248,-0.5797157,-0.3823924,-0.6971898,0.5805573
1592044323598,-1.4826896,-6.4592876,3.2145312,-0.36314604,-0.7159687,0.5794061
1592044323619,0.20155549,-7.332526,5.3441753,-0.35339564,-0.7210796,0.5810389
1592044323638,0.6433885,-3.8212328,2.3794076,-0.3507833,-0.7243953,0.57802147
1592044323660,-2.393743,-1.0548906,0.48119068,-0.3407158,-0.72947705,0.5782358
1592044323682,-1.579313,-0.026812553,1.7293787,-0.33664495,-0.7308371,0.5792791
1592044323703,-0.41554916,0.6782112,2.0335815,-0.3264214,-0.7313623,0.5844382
1592044323723,0.17855108,1.8998299,2.012922,-0.32229924,-0.72982097,0.5880069
1592044323744,0.026881814,3.5923357,1.7535436,-0.32024828,-0.72691476,0.59130985
1592044323765,-0.33306038,4.781595,2.2909837,-0.3179381,-0.72367924,0.5952969
1592044323785,-0.6777998,5.0376787,2.7515721,-0.31603938,-0.71919703,0.60045487
1592044323807,-1.3651184,3.175291,3.0018644,-0.31637192,-0.7136882,0.6056678
1592044323826,-3.2718391,-1.9770441,2.9674828,-0.3171027,-0.70733726,0.6119644
1592044323847,-5.6970854,-8.8714905,1.95545,-0.31501466,-0.69795513,0.62448716
1592044323869,-5.0636373,-9.558875,0.1695131,-0.30100274,-0.6820107,0.6515466
1592044323891,-2.0346751,-3.441308,-3.7770288,-0.2837987,-0.6707803,0.6726364
1592044323910,0.6161659,0.08345699,-4.6082153,-0.27177605,-0.66249657,0.6871495
1592044323933,2.0747786,1.7492695,-2.2822256,-0.27501196,-0.65624523,0.6914307
1592044323952,2.991,2.937028,-0.9167137,-0.2941885,-0.64913154,0.68705666
1592044323976,3.7964616,5.2266884,-0.05763279,-0.31059957,-0.64418083,0.6804281
1592044323996,3.47614,6.092148,0.12004095,-0.32181835,-0.64047396,0.67402965
1592044324016,3.2236156,6.5171747,0.2649948,-0.32520458,-0.6391678,0.6713567
1592044324039,2.1239827,6.52612,0.25653112,-0.32913026,-0.6367403,0.66514623
1592044324058,1.8328756,5.1027813,0.6044111,-0.3280567,-0.6343935,0.6654006
1592044324080,0.52620053,0.33836365,-0.21950163,-0.32509977,-0.63039327,0.6671526
1592044324100,-1.3700563,-6.666313,-2.9338012,-0.3202788,-0.6286555,0.669716
1592044324122,-1.8711854,-7.804574,-4.524168,-0.30519682,-0.631893,0.67483246
1592044324141,-1.8929626,-8.632129,0.77530074,-0.2987699,-0.6381519,0.67347234
1592044324163,-0.87941694,-13.8325405,1.134744,-0.31122002,-0.6345575,0.6686917
1592044324180,5.1262474,-3.0274906,-0.3231578,-0.32233673,-0.62720543,0.6670118
1592044324202,2.6429474,-0.5998993,1.2542584,-0.32135835,-0.6248365,0.66808605
1592044324224,0.6817025,-2.5259829,0.76565754,-0.32316098,-0.62443644,0.6665474
1592044324246,-0.4159751,0.20888329,-0.10188304,-0.32463986,-0.6261097,0.66400045
1592044324265,-0.5865401,3.3305607,-1.7929597,-0.320881,-0.627736,0.66536564
1592044324286,-0.6576625,4.7385015,-4.1398206,-0.30732778,-0.6314179,0.67190677
1592044324307,-1.3486966,5.2910156,-5.1979914,-0.2975031,-0.6371464,0.6746813
1592044324329,-0.51274705,4.4568405,-3.1412015,-0.30335325,-0.64539963,0.66638654
1592044324350,-0.00936234,3.330636,-1.723838,-0.31008175,-0.647745,0.6609594
1592044324372,1.2547944,-0.21459675,-0.11948949,-0.32564455,-0.6512623,0.6497364
1592044324389,2.497443,-0.26719856,4.0967107,-0.32952592,-0.65203387,0.64735913
1592044324411,2.4657028,-0.18534946,3.679475,-0.3374347,-0.65031725,0.643154
1592044324432,1.1200211,-2.801177,0.9862323,-0.3411274,-0.6479145,0.64190847
1592044324454,-0.20048666,-3.97369,0.44348752,-0.33188015,-0.6454249,0.64996064
1592044324476,-1.2350113,-3.5924387,-0.49711025,-0.32131895,-0.64460444,0.657944
1592044324496,-1.567314,-3.8067312,-0.52880085,-0.31171888,-0.64459884,0.6648735
1592044324518,-1.847161,-3.7844753,-1.0690717,-0.30572456,-0.6438534,0.67005825
1592044324537,-1.340628,-1.574832,-1.3202715,-0.30828407,-0.6435724,0.66937923
1592044324559,-0.9466026,0.50395966,-1.6319518,-0.3131403,-0.6448298,0.6663709
1592044324590,-0.15166068,3.6416597,-1.1855183,-0.32227832,-0.65224564,0.6568789
1592044324611,-0.17131817,5.3731356,-0.7692666,-0.33337995,-0.66340846,0.64258087
1592044324621,0.07009983,5.713951,-1.1147095,-0.33879223,-0.6686604,0.63540375
1592044324643,1.3849757,5.468609,-1.3313113,-0.3480155,-0.68115604,0.6201017
1592044324662,2.382893,4.29611,1.2805197,-0.35438234,-0.6949665,0.6047481
1592044324684,2.7304919,3.1671858,2.981025,-0.35902888,-0.7043725,0.5933077
1592044324705,3.8649187,0.5297508,4.1974154,-0.3644654,-0.720199,0.5742311
1592044324726,1.8460028,-2.036621,4.531372,-0.35411403,-0.73186404,0.5698178
1592044324748,-1.6133006,-5.0075636,3.045929,-0.33750027,-0.74199253,0.5706279
1592044324769,-4.0605783,-8.20823,0.92025566,-0.3264404,-0.7473375,0.57246804
1592044324788,-3.728164,-7.7044888,-1.3928487,-0.3215547,-0.74805385,0.5757625
1592044324813,-3.4367852,-4.129198,-2.6985335,-0.3086409,-0.7475688,0.584691
1592044324832,-2.4944758,-2.1065464,-2.5848722,-0.28984207,-0.7474109,0.5951621
1592044324852,-1.5460534,0.6775694,-1.7380166,-0.27386436,-0.74601567,0.6049376
1592044324874,-1.2275934,3.239089,-0.8650656,-0.26497522,-0.74422175,0.61120915
1592044324896,-1.0307724,5.346609,0.6348698,-0.2667228,-0.74082434,0.61403733
1592044324915,-0.7662773,6.05223,2.3380797,-0.27662203,-0.7371239,0.61314416
1592044324937,-0.259629,5.6774626,2.8547225,-0.29078537,-0.7334745,0.60940737
1592044324957,0.5712004,5.177888,2.8968244,-0.3031535,-0.7329424,0.6025904
1592044324978,2.7229843,4.1406,5.881445,-0.30667064,-0.73635745,0.5967709
1592044325000,4.0399947,3.339468,7.4912796,-0.2871451,-0.73972064,0.6051553
1592044325018,1.9528539,2.9948664,5.946366,-0.26821348,-0.73858136,0.6167486
1592044325039,-2.08857,-3.042531,-1.0622942,-0.23989303,-0.73143005,0.63788474
1592044325061,-6.0964093,-10.776087,-0.5422257,-0.22282256,-0.72278064,0.6540701
1592044325083,-6.6242857,-10.737217,-0.3945614,-0.22192371,-0.7161507,0.66153306
1592044325102,-4.0255036,-4.624587,0.7719786,-0.23614962,-0.7083125,0.66395074
1592044325123,-1.9208436,-2.4021025,0.6696756,-0.25397483,-0.6981709,0.66599065
1592044325145,0.42296433,-1.9479141,-0.9764985,-0.27539957,-0.6876615,0.665147
1592044325168,2.1308522,1.2444534,-1.2015269,-0.2964807,-0.6779945,0.66168725
1592044325187,2.392588,3.403696,-0.123787224,-0.30527428,-0.67229795,0.66072595
1592044325208,2.772771,5.236759,1.1847365,-0.3115162,-0.66632926,0.6610132
1592044325227,2.7013283,5.7197742,1.1339206,-0.32042056,-0.6592585,0.6593755
1592044325250,1.1648235,3.4717607,0.25257128,-0.3314262,-0.6517925,0.6553899
1592044325270,-1.2224499,-4.3185587,-3.1613297,-0.33443263,-0.64262396,0.65871674
1592044325292,1.9051194,-6.3555765,-4.32227,-0.318704,-0.6397363,0.6730728
1592044325315,6.040432,-0.47691536,-3.5671687,-0.2915548,-0.6440926,0.6876252
1592044325335,5.4556565,2.2553606,-2.0513086,-0.28008974,-0.6460963,0.69174147
1592044325355,1.5615157,1.5737829,-2.6640875,-0.27981192,-0.6451291,0.69054693
1592044325375,-1.092621,-1.3229609,-2.0286472,-0.294583,-0.64280295,0.6805218
1592044325397,-2.029049,-2.2967577,-1.7355727,-0.30472246,-0.6425301,0.672557
1592044325416,-2.2794392,-1.5633221,-2.6799188,-0.305596,-0.6450053,0.6695581
1592044325440,-2.8515368,-0.6348438,-5.8047934,-0.29036558,-0.6534731,0.67357755
1592044325460,-0.41852808,1.1019258,-12.65218,-0.2697638,-0.6681036,0.67549807
1592044325480,0.49102104,3.173582,-5.5544558,-0.2610795,-0.69208235,0.66049075
1592044325502,-1.2083575,2.4451714,4.9800205,-0.28035963,-0.7116653,0.6320215
1592044325522,0.28775895,0.14574909,6.6213093,-0.32336178,-0.7153022,0.60188705
1592044325544,2.5584188,-3.8010492,5.3976636,-0.36472332,-0.71119547,0.5737037
1592044325563,1.2730407,-9.509213,7.4472475,-0.3717543,-0.7150406,0.560466
1592044325584,-0.51630545,-6.8809786,5.742388,-0.34943998,-0.72327036,0.56991726
1592044325606,-0.20130396,-2.7198296,-4.5498867,-0.31534508,-0.7297445,0.5901404
1592044325628,0.06349623,0.8095255,-4.0096655,-0.2671243,-0.73669755,0.6147299
1592044325646,-1.7262845,2.7997532,1.0255187,-0.24265184,-0.7454921,0.6174916
1592044325668,-2.9040632,5.6049757,0.6858809,-0.2551849,-0.7550241,0.5988335
1592044325689,-2.865704,6.3604593,0.19194293,-0.2664476,-0.7597319,0.585983
1592044325711,-2.198813,4.2862206,1.9587047,-0.26644754,-0.76293147,0.58204335
1592044325732,-1.035102,2.56701,2.3872957,-0.26441115,-0.7664941,0.5794085
1592044325752,1.8409761,0.61851215,4.0435324,-0.26178452,-0.7746419,0.57160944
1592044325774,3.2321165,-0.053990364,6.8902216,-0.24590601,-0.7806636,0.572952
1592044325795,-0.68433785,0.81282043,-1.2403507,-0.22179282,-0.78469807,0.5787954
1592044325815,-2.2152996,-2.4403543,-1.8605428,0.21585369,0.7890922,-0.5750507
1592044325837,-5.2788496,-8.408345,-0.48234224,-0.22363822,-0.7843619,0.57858276
1592044325855,-4.902563,-8.45001,-1.9803126,-0.2323867,-0.7741047,0.5885352
1592044325877,-2.1533759,-2.4161367,-0.52276444,-0.24008755,-0.76763785,0.59321994
1592044325903,-0.8926172,2.432417,1.4564509,-0.25780296,-0.7554142,0.5993134
1592044325921,0.09306264,4.4858875,2.064143,-0.26995513,-0.74621964,0.6037283
1592044325942,1.3825455,5.553111,2.3791323,-0.2835749,-0.73617285,0.6078722
1592044325962,1.8179355,5.3990726,2.2317593,-0.29629478,-0.7260637,0.61200726
1592044325981,2.1618931,4.218093,2.4967175,-0.30426532,-0.71700454,0.6174859
1592044326003,1.4251463,2.6523094,1.8219229,-0.30688012,-0.7092905,0.6241195
1592044326024,-0.69659615,1.2354431,-1.3373538,-0.30670452,-0.7020755,0.6308009
1592044326047,-1.20451,0.75500107,0.31499338,-0.30700827,-0.6983729,0.6337897
1592044326062,-0.73904705,0.3707056,2.307699,-0.31340116,-0.69671476,0.6311878
1592044326088,1.2129267,-0.9224024,3.9574249,-0.33782184,-0.6949053,0.6159696
1592044326110,1.0355214,-16.306095,-6.589783,-0.35117346,-0.69261694,0.60683554
1592044326130,5.022164,-7.285918,-4.627223,-0.3262317,-0.6843805,0.6330376
1592044326150,4.9422398,0.28310204,-0.048637033,-0.33305418,-0.6833269,0.6283423
1592044326170,2.8431854,0.50089264,2.69461,-0.34698066,-0.6826402,0.61617416
1592044326192,0.6228758,0.44163418,3.0907679,-0.35836262,-0.67407435,0.61189723
1592044326212,0.54193926,0.72162914,0.6497402,-0.366847,-0.6599661,0.61367875
1592044326234,-0.38844764,1.7462816,-2.714238,-0.3693025,-0.64712304,0.6167925
1592044326254,-0.9725046,2.5639162,-2.0369225,-0.36471158,-0.6442497,0.6194736
1592044326275,-0.7858155,4.1805134,-2.5231574,-0.36069995,-0.64608526,0.6194121
1592044326298,-2.08668,4.9929867,-2.6736383,-0.35723022,-0.65075415,0.6181446
1592044326318,-2.5481205,5.263546,-3.2170506,-0.36537915,-0.6531566,0.6110233
1592044326337,-1.1279799,2.9507332,1.6224802,-0.38439512,-0.653551,0.59816164
1592044326359,-0.7276815,-4.652216,-1.2325175,-0.40740648,-0.6513099,0.58374804
1592044326381,3.9935272,-11.4805355,-1.8848201,-0.41663712,-0.65143484,0.5830343
1592044326400,6.9004173,-6.2008953,-1.4693096,-0.41073772,-0.6530586,0.59135485
1592044326423,8.351917,0.95308685,0.23063993,-0.39839837,-0.65578717,0.60280013
1592044326444,7.6447773,0.91280365,-1.068481,-0.39422184,-0.6554636,0.6043757
1592044326465,4.4691176,-1.0083647,0.40773916,-0.3902205,-0.6571392,0.6020902
1592044326484,1.023211,-0.8128891,1.8570814,-0.38379166,-0.6600111,0.60107565
1592044326506,-2.3760228,-0.6502876,-0.9009453,-0.3716388,-0.66328835,0.6035826
1592044326527,-4.406958,0.9989548,-3.825691,-0.35758367,-0.6688078,0.6083351
1592044326549,-4.778988,3.0145674,-4.5572853,-0.3414834,-0.6797513,0.6123865
1592044326569,-2.0852323,3.6583338,-1.1556306,-0.33427414,-0.6937393,0.6075378
1592044326593,0.10224271,2.750574,3.0035222,-0.3466059,-0.70769227,0.58725685
1592044326613,-0.080302596,1.2480545,1.4071774,-0.3569627,-0.7145053,0.5734763
1592044326633,0.9711528,-0.96409893,4.260998,-0.3544139,-0.7273917,0.5645587
1592044326653,1.9621758,-4.821595,1.6684916,-0.3376606,-0.7342068,0.5720094
1592044326675,-1.295218,-12.956992,0.8321588,-0.3095549,-0.740331,0.5859645
1592044326692,-2.264083,-5.346669,1.0592415,-0.29318026,-0.74274826,0.5941049
1592044326714,-2.7836912,0.867939,1.3591604,-0.27791768,-0.74203575,0.6044079
1592044326736,-1.6501362,2.5493212,0.8857529,-0.27851516,-0.73875344,0.60793644
1592044326759,-1.16154,3.8286705,0.6422899,-0.28564295,-0.7344095,0.60799956
1592044326779,-1.7262692,4.224167,1.8127549,-0.2916739,-0.72968215,0.60789704
1592044326798,-1.2837301,4.9227705,1.6388979,-0.29780152,-0.7234475,0.6096505
1592044326820,-0.3632071,5.285512,1.7596915,-0.30111572,-0.7235016,0.6075821
1592044326844,0.205868,5.004326,1.0242953,-0.30235982,-0.7295188,0.6007724
1592044326864,-1.0160127,3.1621656,0.9078858,-0.2971937,-0.7405617,0.59322304
1592044326883,-0.8970256,-0.4485464,2.3857715,-0.28619283,-0.7483499,0.5929761
1592044326906,-4.338686,-7.899832,2.4925451,-0.27190945,-0.7528012,0.5971352
1592044326926,-9.745601,-14.504221,-2.083851,-0.2642627,-0.7511474,0.6038543
1592044326949,-3.276043,-3.7723684,-1.5614798,-0.2826976,-0.7439045,0.60350144
1592044326968,1.5168142,0.7796726,2.0408053,-0.3074402,-0.73331386,0.601741
1592044326989,4.112406,4.4110355,3.0677514,-0.32976797,-0.7200118,0.6025198
1592044327013,4.1057377,6.3324165,2.4112165,-0.3496834,-0.7040507,0.6051899
1592044327032,3.2056956,6.383732,0.8225472,-0.35858586,-0.69209015,0.60993946
1592044327052,2.0685952,5.0857706,-0.017515898,-0.36192906,-0.68223494,0.61628485
1592044327074,0.9602823,3.1631422,0.37404096,-0.35925397,-0.6762492,0.6227679
1592044327094,0.003789425,1.0587072,0.6305872,-0.35505304,-0.67280126,0.62711966
1592044327116,-2.399527,-1.4543562,0.5417541,-0.35271344,-0.66964877,0.62812304
1592044327136,-3.0250099,-2.4683695,0.5261601,-0.3559022,-0.6668275,0.62547237
1592044327158,-5.567956,-12.543374,-4.9689236,-0.35909167,-0.6654683,0.62280077
1592044327179,0.9425429,-10.817675,-6.4262033,-0.3529898,-0.66333246,0.6322565
1592044327199,5.6259046,0.81958675,2.0945358,-0.36154115,-0.6600571,0.6318223
1592044327221,8.510099,3.6737661,3.9718068,-0.38757998,-0.6577541,0.61258715
1592044327242,4.9643655,1.4318323,3.2792616,-0.39980718,-0.6542888,0.59867334
1592044327264,2.5128088,0.66612816,1.5245084,-0.4053534,-0.6446668,0.59390885
1592044327284,0.2920618,1.8298569,-2.854082,-0.40565145,-0.6348574,0.5953216
1592044327304,-2.0492606,0.77070713,-5.7267804,-0.39056924,-0.6362588,0.60278493
1592044327325,-4.0419974,1.5106916,-9.1855545,-0.37624064,-0.6458126,0.60792786
1592044327347,-5.265636,3.4382162,-10.7525215,-0.3743503,-0.66264313,0.6001464
1592044327368,0.6998,3.5987768,9.512497,-0.40701565,-0.6703031,0.57057494
1592044327387,4.078242,1.6363182,6.5907025,-0.43625462,-0.66243136,0.550281
1592044327409,4.6762476,-6.2753124,-4.7110977,-0.4553181,-0.65955716,0.5343532
1592044327431,4.415502,-9.148252,0.47543073,-0.4327165,-0.6655758,0.5587556
1592044327451,5.024148,-2.0336332,-1.9904218,-0.41413465,-0.66786957,0.57686126
1592044327473,2.0585957,-0.5001955,0.41699648,-0.40560302,-0.6665044,0.5857716
1592044327493,2.2273622,-0.28325272,0.6204779,-0.39974496,-0.6642164,0.5916424
1592044327515,0.710204,1.093544,1.03971,-0.39105564,-0.6631624,0.5974253
1592044327533,-0.13069355,2.1005545,-0.27051473,-0.38258544,-0.6621685,0.60244393
1592044327555,-0.79927826,2.2942066,-1.1550806,-0.3727412,-0.66246396,0.60773593
1592044327576,-1.4167367,1.5456486,-2.0612936,-0.3619747,-0.6651984,0.61257607
1592044327598,-1.6814209,2.1053343,-3.2095652,-0.35267517,-0.67343515,0.6128329
1592044327617,-1.3018186,1.6841049,-3.0415978,-0.35232496,-0.6828138,0.60547984
1592044327638,-1.61944,-0.6446562,-2.652376,-0.35615796,-0.69406104,0.5931964
1592044327661,1.5246551,-4.924325,5.8379164,-0.3598216,-0.70468616,0.582651
1592044327681,3.0306745,-9.117253,4.8045015,-0.36446828,-0.7100594,0.5739274
1592044327703,-2.5730548,-6.0328627,1.5780015,-0.35492575,-0.71617544,0.5750845
1592044327723,-2.9351506,-1.0485077,2.240925,-0.33396083,-0.71804863,0.590777
1592044327747,-2.202903,2.1907463,0.89250255,-0.31698227,-0.7167926,0.6054919
1592044327765,-1.5955945,3.58208,0.48060298,-0.31582394,-0.71593523,0.6074118
1592044327787,-1.1025234,4.7420597,0.6170435,-0.32496282,-0.7129715,0.6042373
1592044327807,-0.28493297,5.2921686,0.85707283,-0.33495352,-0.7093764,0.6007603
1592044327828,0.4594723,4.783662,1.4710736,-0.3417374,-0.7066875,0.5986421
1592044327850,1.2102138,2.9147549,1.645915,-0.34185007,-0.7076819,0.59800386
1592044327870,0.57931733,1.6046038,1.1392939,-0.33359325,-0.712607,0.599483
1592044327893,-0.7363299,0.548336,0.7037153,-0.31563812,-0.7181882,0.60670614
1592044327914,-3.0214534,-1.0693092,0.76767707,-0.28473923,-0.72180635,0.62321997
1592044327933,-3.183068,-2.7834654,1.3613534,-0.27302995,-0.7222234,0.63021755
1592044327959,-3.0811005,-7.047901,-0.7096752,-0.27386302,-0.72070235,0.6326433
1592044327977,-3.3795369,-7.2995834,-1.1364379,-0.2836008,-0.7149872,0.6340613
1592044327997,-3.3583403,-3.2999735,-0.6918477,-0.29737908,-0.70696974,0.63475233
1592044328019,-1.2656662,0.71138287,1.3123736,-0.31918815,-0.69740134,0.63133925
1592044328040,0.26901436,2.9668741,2.3861861,-0.33817658,-0.689924,0.62636244
1592044328060,1.4899077,4.982229,2.5295877,-0.35883558,-0.6812151,0.62018406
1592044328081,2.0325868,5.86065,2.1930623,-0.37821043,-0.6716878,0.61424714
1592044328104,1.9218729,4.36957,1.8057292,-0.3961137,-0.65958333,0.6101772
1592044328123,0.5784571,2.2245579,1.6263527,-0.40151292,-0.65278196,0.6105689
1592044328146,-1.7037337,0.9782667,0.024429083,-0.404304,-0.64345366,0.6132181
1592044328161,-2.1750112,1.9934015,-0.78991663,-0.4041821,-0.6389395,0.6161062
1592044328185,0.6719091,0.6126118,1.3997226,-0.41046146,-0.63555866,0.61365694
1592044328207,1.493087,-10.24163,-10.165827,-0.41872963,-0.63622624,0.6057246
1592044328229,6.4711456,-9.947966,-0.58503914,-0.4058436,-0.6439753,0.6121377
1592044328248,3.8195732,-0.23343754,4.023814,-0.4208169,-0.64174384,0.5990949
1592044328270,2.427184,1.2353973,2.0479681,-0.43635282,-0.6362347,0.58664155
1592044328292,0.47841728,0.9750967,1.1938142,-0.43964985,-0.62674683,0.58773893
1592044328312,0.31301713,1.9592419,-1.5487318,-0.43761268,-0.6184049,0.59256774
1592044328331,0.7113861,1.9637165,-3.7575288,-0.43563253,-0.61152595,0.59570074
1592044328354,0.50144565,1.8558092,-5.085033,-0.4359955,-0.607754,0.59530777
1592044328373,-0.49627435,2.305952,-2.25541,-0.44148627,-0.606476,0.58951604
1592044328394,-1.4958051,4.0559177,-3.3015156,-0.45451775,-0.6065637,0.57589406
1592044328414,-2.5364146,3.1993885,-8.400888,-0.46400943,-0.6135516,0.5642687
1592044328436,2.013628,-1.2785549,4.151311,-0.4726885,-0.61784667,0.5589691
1592044328456,4.7199516,-6.6778374,2.5847907,-0.48551887,-0.61416304,0.55093706
1592044328478,7.1200094,-8.549975,0.66090107,-0.4837601,-0.6172524,0.5523966
1592044328497,6.5966096,-3.298213,1.7267108,-0.4619768,-0.62453604,0.5700017
1592044328519,2.803495,-2.567068,0.49837172,-0.43693894,-0.6300675,0.5883429
1592044328541,-1.1145688,-4.6359024,-0.49631906,-0.4133989,-0.6367755,0.6010227
1592044328561,-2.7983832,-3.4893656,-0.5462301,-0.3958381,-0.6420313,0.6102533
1592044328583,-2.062715,-0.04874611,-0.85820186,-0.38203448,-0.6459366,0.61824024
1592044328605,-0.99954605,5.009617,-1.2334707,-0.3571841,-0.65695626,0.62924385
1592044328624,0.76114976,5.95409,-0.76305425,-0.3465845,-0.6664845,0.6308457
1592044328646,2.4699888,5.522167,-0.04074943,-0.34273827,-0.67760116,0.62646526
1592044328666,3.0294094,4.8602457,0.13086522,-0.3441741,-0.6907773,0.6151321
1592044328688,3.0629823,3.2990274,0.4172535,-0.33734274,-0.7120995,0.60004014
1592044328713,0.82910013,0.1538744,7.379693,-0.31709883,-0.72786826,0.59760404
1592044328733,-1.5623431,-3.4543228,7.507227,-0.30658767,-0.73264205,0.5983785
1592044328752,-6.094406,-9.39781,1.900455,-0.30315652,-0.7366286,0.59502375
1592044328771,-6.8925667,-10.314252,-0.8119035,-0.29486942,-0.7383513,0.5988111
1592044328794,-4.762763,-5.777893,-0.30662155,-0.27857548,-0.7379637,0.60984623
1592044328814,-4.9602714,-1.7437506,0.061947107,-0.25692907,-0.73832786,0.6212207
1592044328835,-2.0282226,2.081254,0.13069248,-0.26332343,-0.73690176,0.61971897
1592044328856,0.18260503,3.9869928,1.473068,-0.27104524,-0.7332757,0.6200383
1592044328877,1.7781265,5.2532177,2.1379893,-0.28864723,-0.72453827,0.6206097
1592044328898,2.7801874,6.142703,2.0205045,-0.3029331,-0.71888566,0.6187571
1592044328919,2.8978407,6.8478775,0.64556766,-0.31054497,-0.7173002,0.61615855
1592044328940,1.9488511,4.2736473,2.5769732,-0.3008917,-0.71838546,0.62111014
1592044328963,0.97284174,2.0686102,3.67127,-0.2829655,-0.71793675,0.6318169
1592044328983,-3.1437812,-2.4867373,1.7686205,-0.2656826,-0.7163579,0.6423924
1592044329005,-8.24761,-12.152796,-0.9248216,-0.25730157,-0.71215624,0.65098935
1592044329027,-8.010146,-9.965615,-4.026451,-0.2610496,-0.7053636,0.6566539
1592044329048,-4.600663,-3.017188,1.2228246,-0.2747524,-0.70098174,0.654661
1592044329067,-1.3954628,-0.005361557,2.0811195,-0.30141726,-0.6927047,0.64908665
1592044329090,0.62909245,1.1406956,1.9407401,-0.33208165,-0.6828699,0.64010406
1592044329109,2.0222797,1.6806765,1.9854503,-0.36063907,-0.67246556,0.62983894
1592044329131,2.9299207,3.3670893,1.4517409,-0.38794875,-0.6596817,0.61992174
1592044329150,3.3408258,4.8647833,1.3275216,-0.40080127,-0.65152925,0.6162951
1592044329174,3.6306157,6.656803,0.072350025,-0.40903455,-0.64413834,0.6148665
1592044329194,3.157147,7.122113,-1.5612504,-0.40849397,-0.64120764,0.6159454
1592044329216,-0.19938135,5.3413963,0.46548975,-0.4053188,-0.6393749,0.61747164
1592044329236,-0.8002603,3.2389479,2.9202204,-0.41204688,-0.6332618,0.6141678
1592044329260,-0.9745374,-2.7907486,-1.2100847,-0.43597242,-0.6203322,0.6004235
1592044329280,-5.0880923,-14.124716,-3.1115994,-0.43411738,-0.6199361,0.6041055
1592044329299,-0.57521653,-19.702955,-2.0225444,-0.41571814,-0.6192523,0.62553227
1592044329322,6.420239,-5.2757607,-2.9940794,-0.41880098,-0.6127954,0.6292313
1592044329344,5.786125,1.1116552,1.8450942,-0.43993154,-0.6044992,0.6151264
1592044329363,4.737055,1.1008778,1.7867392,-0.4533757,-0.5987327,0.60253656
1592044329382,2.464174,0.63373184,0.14347923,-0.45720348,-0.5936245,0.5964308
1592044329405,-0.34627485,2.51684,-5.167934,-0.44394404,-0.5899107,0.6072377
1592044329421,-1.5046865,3.7329922,-8.050196,-0.42355952,-0.59221894,0.6230081
1592044329443,1.9750575,4.7751923,-4.868026,-0.40171513,-0.60369855,0.6356725
1592044329464,4.176423,5.12566,-2.400868,-0.40913212,-0.6132282,0.6249638
1592044329486,4.2290154,4.779195,0.18673813,-0.42297262,-0.6251404,0.6049722
1592044329508,1.9975463,1.2754507,1.6034145,-0.427817,-0.6342367,0.59260774
1592044329528,0.07482576,-4.162096,2.3342109,-0.4273338,-0.643097,0.58420897
1592044329548,-3.2123673,-7.9580746,1.5707564,-0.42088044,-0.65490216,0.5794116
1592044329571,-7.000483,-5.5166893,-6.4098134,-0.40087456,-0.6791102,0.580904
1592044329591,-7.696677,-7.6557646,-8.357978,-0.38620952,-0.707323,0.5745976
1592044329613,-4.5328035,-5.4932823,3.0599127,-0.39804327,-0.7326057,0.5433041
1592044329631,1.5061553,4.2985535,9.87696,-0.40158364,-0.74066216,0.5325178
1592044329654,7.537513,9.674093,8.49951,-0.3891632,-0.73693955,0.5462901
1592044329674,9.773686,9.098435,6.9559774,-0.37485042,-0.7345912,0.5561879
1592044329696,5.6279764,5.8823214,7.1616993,-0.35823622,-0.7354061,0.5611223
1592044329717,2.9450388,2.5535717,5.1062984,-0.35061204,-0.72938406,0.5701664
1592044329736,-1.6394122,-5.357333,3.9727392,-0.34639525,-0.7157701,0.5862593
1592044329759,-10.095917,-20.806534,-1.7022055,-0.34130567,-0.6892737,0.6178853
1592044329780,-8.480032,-11.698151,-9.860833,-0.3203225,-0.67370135,0.6500475
1592044329800,-7.208648,1.4622622,-6.416156,-0.2787585,-0.6769301,0.6723676
1592044329821,-4.822995,6.831004,-3.4256043,-0.2480382,-0.6848644,0.6806289
1592044329841,-2.0155914,7.7260227,-0.89706665,-0.2470901,-0.68719524,0.6799828
1592044329863,0.37283325,3.5576277,1.3851743,-0.28669423,-0.68008494,0.66986597
1592044329883,1.604634,0.8811455,1.7608254,-0.33457604,-0.6697389,0.6536937
1592044329905,2.4852684,0.4252119,1.5402061,-0.38149577,-0.66112375,0.629686
1592044329926,1.7683752,1.1712389,0.59012103,-0.41342452,-0.659567,0.6050041
1592044329946,1.9544468,0.19900703,2.0328948,-0.41798162,-0.66540486,0.59626406
1592044329968,3.309335,-2.529128,2.1967728,-0.39618462,-0.6701743,0.61169887
1592044329987,3.9811063,-3.3787298,2.134417,-0.3738081,-0.66777,0.63055116
1592044330009,3.4485176,-0.7761297,2.419774,-0.3598795,-0.6604727,0.6443052
1592044330031,1.8206198,0.8601036,2.4348083,-0.36003712,-0.6468376,0.650686
1592044330048,1.5515459,1.1084862,2.2294805,-0.3672714,-0.63658375,0.6505261
1592044330070,0.9122405,0.2811718,0.37177223,-0.37681264,-0.624707,0.6490064
1592044330093,1.2917404,-0.922452,-1.1128045,-0.38094485,-0.5967783,0.65830696
1592044330112,1.275899,0.26032925,-1.1653568,-0.36983734,-0.58267957,0.67042774
1592044330134,-1.0267645,-1.3961945,-0.945948,-0.35890794,-0.57652795,0.6762827
1592044330156,-6.9565196,-10.102836,-6.5182285,-0.3423584,-0.57923454,0.6817932
1592044330176,-8.017709,-8.529622,-33.15905,-0.3063728,-0.5983007,0.69716465
1592044330197,-4.10236,1.4876776,-7.1078444,-0.29091522,-0.6337583,0.6878849
1592044330220,0.40519166,2.230713,-0.13231945,-0.31125447,-0.6564846,0.66250557
1592044330241,2.6035225,-2.0799723,5.309709,-0.35161436,-0.6669502,0.63219213
1592044330262,5.395481,-4.413947,7.363028,-0.4010724,-0.662005,0.6013494
1592044330282,2.2200708,-3.198245,9.063928,-0.4463322,-0.6594608,0.56171525
1592044330306,-2.0842845,1.8446627,9.971962,-0.4716243,-0.6626628,0.53096277
1592044330326,-1.6814157,6.9198227,-3.7891798,-0.4565308,-0.6698582,0.5432215
1592044330346,-0.8537948,3.5695286,-2.7208796,-0.42393583,-0.6911859,0.5601994
1592044330366,0.7064643,0.11663532,-0.36723876,-0.4155897,-0.71414536,0.54712945
1592044330387,1.2342856,-1.6703329,-0.14480281,-0.4120956,-0.7297754,0.5346045
1592044330410,0.6855836,-1.8185196,-0.85374355,-0.40999493,-0.73202956,0.5341274
1592044330430,-1.5591972,0.1269474,1.3119671,-0.4126962,-0.7217276,0.5426767
1592044330450,-2.1315916,0.031547546,0.9853661,-0.41682684,-0.7118274,0.5488705
1592044330473,-2.4740734,-1.6352053,-0.50332284,-0.41696134,-0.70260537,0.5571482
1592044330492,-1.6420426,-2.1727133,-0.24316955,-0.41076943,-0.69761354,0.56722194
1592044330514,-1.0502503,-2.1703815,-0.5474901,-0.4029767,-0.6930721,0.5785276
1592044330533,-0.33584642,-0.5771971,-0.79854107,-0.39630783,-0.6893881,0.5878584
1592044330555,0.2703507,2.0852413,-0.23130703,-0.3922733,-0.68573666,0.5946733
1592044330576,0.36601424,3.9034548,1.3426497,-0.3905981,-0.67890143,0.6026525
1592044330598,0.44637704,4.4408026,1.884042,-0.39358717,-0.6718153,0.6074157
1592044330620,1.266439,5.093314,1.4340079,-0.39908326,-0.6655209,0.6095254
1592044330640,2.164764,5.764454,1.946339,-0.40126368,-0.66185725,0.611743
1592044330661,2.2895315,4.8788166,4.7193217,-0.39828527,-0.65809876,0.6178113
1592044330681,0.0932107,-1.2080336,3.5749545,-0.38519666,-0.6496543,0.63386446
1592044330704,-1.7279172,-6.172696,0.9790163,-0.37062308,-0.6414131,0.6500322
1592044330724,0.7503536,-2.901764,-1.5534604,-0.36062866,-0.6316122,0.6644489
1592044330744,1.8198028,-0.34658432,-2.9609306,-0.35786206,-0.62759906,0.6691983
1592044330765,-0.49291778,-6.7615976,-2.9098716,-0.3631355,-0.6234374,0.6660039
1592044330787,-1.6018434,-12.963663,-1.7341726,-0.36767897,-0.6236918,0.66118836
1592044330807,5.372749,-1.3499575,-2.9780374,-0.36681405,-0.62213093,0.6621902
1592044330828,4.480708,1.0060673,-1.3654157,-0.36050883,-0.6273314,0.66143906
1592044330850,0.75212884,-1.5352106,1.7223322,-0.35403612,-0.64016265,0.6528787
1592044330873,-2.6921391,-2.88939,1.272027,-0.35141486,-0.6452429,0.64829665
1592044330889,-2.9363408,-2.6772442,-0.7095083,-0.35120043,-0.6437542,0.6484387
1592044330910,-0.5662087,0.24832821,-2.1155083,-0.35390958,-0.63928497,0.6488033
1592044330932,1.91891,1.7577562,-1.2869709,-0.3584878,-0.6389391,0.6453972
1592044330954,2.3042169,2.3310404,0.14717847,-0.36363265,-0.6412909,0.639324
1592044330976,0.9159466,2.991291,0.97926164,-0.3697653,-0.64396626,0.6319436
1592044330998,-0.4382292,3.4520903,0.30329907,-0.37367272,-0.64482075,0.6275769
1592044331018,-1.4822881,3.7945747,-1.2508985,-0.37610263,-0.64587927,0.6242948
1592044331038,-1.8034858,2.8530674,-3.5914571,-0.37793142,-0.65129805,0.61900765
1592044331060,-2.5264964,-0.48458004,-4.484468,-0.37933913,-0.66267526,0.61026335
1592044331083,-3.0764103,-2.5856142,-3.745565,-0.38188323,-0.67043865,0.6028468
1592044331101,-1.0960381,-4.7542534,0.26869392,-0.39650357,-0.6926537,0.57463247
1592044331124,2.03846,-2.8903742,6.0065646,-0.4072275,-0.70130485,0.55900055
1592044331143,1.7745011,-1.0589561,8.200276,-0.40674865,-0.7082063,0.55533075
1592044331164,-0.8622601,-2.9043999,-0.7167027,-0.40496463,-0.7170344,0.54861283
1592044331186,-5.5007973,-1.0916252,-4.157175,-0.4064874,-0.72661185,0.536791
1592044331207,-0.943578,3.5149508,2.919056,-0.40238103,-0.7294177,0.5392186
1592044331226,1.7228236,4.4675922,4.1979995,-0.40274823,-0.7217848,0.54759705
1592044331248,1.7716389,5.372142,4.3675323,-0.40505245,-0.7117017,0.55605346
1592044331271,1.5327387,5.5046854,4.0765214,-0.4078695,-0.702055,0.56300277
1592044331291,1.6133168,5.177495,4.302093,-0.4096459,-0.6977675,0.56522685
1592044331315,0.8564303,3.0084496,3.708869,-0.40918013,-0.6903534,0.5712499
1592044331333,-0.013771772,0.4396267,3.532379,-0.4000453,-0.6819425,0.58606374
1592044331355,1.3922575,-3.5069218,4.845154,-0.38441554,-0.67114264,0.6080055
1592044331375,3.0841248,-8.853206,5.5796404,-0.35085347,-0.6590272,0.64083165
1592044331397,-13.04546,-7.472471,-27.847958,-0.30499113,-0.6660722,0.6635521
1592044331418,-7.1881056,-4.0305634,-10.514385,-0.2817084,-0.6769015,0.6686578
1592044331438,-0.1337347,-5.0734844,-0.4846077,-0.29605138,-0.6847745,0.65387416
1592044331460,0.24570894,-4.409151,0.98546696,-0.3372827,-0.668084,0.6409413
1592044331479,1.8009737,-2.841424,1.2043726,-0.36233178,-0.6564733,0.63255095
1592044331501,3.503834,-2.930869,1.7352439,-0.37642473,-0.6506112,0.6264264
1592044331519,3.2827625,-1.2492819,1.4657216,-0.3752423,-0.64767283,0.62885636
1592044331540,2.037056,1.2469368,-0.9008179,-0.3626126,-0.64582497,0.6390179
1592044331563,0.3200729,2.7061062,-4.688049,-0.34385052,-0.6456853,0.65264344
1592044331583,-0.31313133,3.5933151,-5.0247345,-0.33235586,-0.64731276,0.6597955
1592044331604,-0.31809425,4.31697,-1.4439106,-0.3465148,-0.6516875,0.6467373
1592044331626,-1.5066108,4.527625,-0.39458656,-0.36916718,-0.65495414,0.62700766
1592044331645,-0.92854655,5.37768,-1.3933227,-0.39041966,-0.6583906,0.60753477
1592044331667,-0.6766813,4.5907574,0.20441175,-0.40115824,-0.667677,0.5911955
1592044331689,-0.6765727,2.472208,3.5798135,-0.4073439,-0.6842544,0.5725209
1592044331709,1.7873964,1.1129198,3.1356504,-0.410835,-0.69721586,0.55906045
1592044331730,2.6122642,-1.5418215,3.061331,-0.39877862,-0.7119506,0.5572422
1592044331752,1.2220516,-4.1782837,-1.3470538,-0.37951,-0.7246858,0.5616547
1592044331772,-5.1406393,-8.533647,0.42911363,-0.36213854,-0.7409475,0.55843383
1592044331794,-6.870414,-4.52859,-1.9838893,-0.3656676,-0.7372879,0.5609103
1592044331815,-6.6234894,-2.3875437,-1.8303983,-0.36807597,-0.7287487,0.56903034
1592044331834,-3.0478196,-2.7003078,-0.80517125,-0.3678065,-0.719753,0.5779792
1592044331856,-0.7512655,-1.9429626,-0.007486582,-0.37068886,-0.70498353,0.5908145
1592044331878,0.680779,0.85601616,9.920597E-4,-0.37337714,-0.692668,0.6009624
1592044331898,1.0153542,3.444932,0.6220739,-0.37531948,-0.6814975,0.609857
1592044331919,1.3178961,5.048602,0.68128157,-0.37723804,-0.67130345,0.61733437
1592044331939,1.5849195,5.5634995,1.209504,-0.37834024,-0.6622682,0.6238984
1592044331961,2.2241397,5.670597,0.83115363,-0.37907815,-0.6530195,0.6299003
1592044331982,1.2675858,5.0228577,0.8772414,-0.37694502,-0.6477937,0.63432294
1592044332002,1.7053924,4.4828005,0.6170416,-0.37539572,-0.64414006,0.6368867
1592044332024,1.0902207,2.568695,0.7946384,-0.37375367,-0.64414465,0.6363538
1592044332044,-0.6480956,-3.0361385,-0.58646345,-0.37219438,-0.64735234,0.6332189
1592044332067,-1.057685,-6.054698,0.72237563,-0.35865277,-0.652058,0.63844126
1592044332087,-0.7876371,-6.349777,1.4733057,-0.35118455,-0.65273434,0.6432145
1592044332108,1.9907194,-4.007515,1.3420055,-0.34238073,-0.64796686,0.6531081
1592044332128,2.6482487,-3.1757975,-0.41418093,-0.34186494,-0.63923734,0.66003853
1592044332150,2.697751,-1.8869247,-0.15256739,-0.34238264,-0.6312471,0.66457677
1592044332170,1.9081026,-0.21625996,0.24111426,-0.34314275,-0.62554336,0.6669284
1592044332191,0.5284363,1.5196552,0.038428728,-0.34593675,-0.61672324,0.66852033
1592044332213,-0.87840295,0.9157791,-1.7717252,-0.3456759,-0.61105216,0.6693626
1592044332232,-1.623938,-0.066046715,-3.0036845,-0.3424522,-0.6100656,0.67077667
1592044332255,-1.9757359,-1.8765106,-5.0626903,-0.33106345,-0.6146441,0.6754598
1592044332275,-1.5977762,-2.5358248,-6.3267035,-0.32147887,-0.62301093,0.6778436
1592044332297,0.7418922,-1.4942579,-2.5668209,-0.32789722,-0.63424903,0.66839045
1592044332318,1.5961702,-1.4402199,-0.60214734,-0.34158993,-0.63841397,0.65662056
1592044332337,2.6396384,-0.45340824,0.2989512,-0.36527288,-0.6423992,0.6353767
1592044332361,1.2628475,1.1188192,1.4552981,-0.37664205,-0.64679945,0.622353
1592044332382,1.034241,2.129284,1.7702081,-0.38218012,-0.6531833,0.61357385
1592044332402,0.47406375,2.2171764,1.8009402,-0.38454774,-0.6609212,0.6063105
1592044332422,0.1514287,2.5940723,0.4744979,-0.38524264,-0.667143,0.601383
1592044332445,-1.4852189,4.328885,-5.81849,-0.37899894,-0.68784297,0.59124756
1592044332465,-2.9361665,3.1366148,-0.7701719,-0.38010436,-0.7077271,0.57334805
1592044332485,1.6305606,0.66489697,9.038804,-0.38516143,-0.7195968,0.5575503
1592044332507,0.7516856,-2.1301584,0.735301,-0.3759558,-0.7310028,0.5526479
1592044332527,1.3125331,-5.466816,0.5352278,-0.36947763,-0.74423635,0.54293925
1592044332548,-2.4296749,-8.440926,0.8394611,-0.36570358,-0.75156975,0.53719515
1592044332570,-6.2092533,-5.6027727,-0.5420184,-0.3589409,-0.75142163,0.54322195
1592044332591,-6.0650296,-4.5841064,-0.2748134,-0.35589308,-0.7503486,0.54703885
1592044332612,-4.403965,-2.5977125,0.54622006,-0.35081127,-0.74372804,0.5574622
1592044332631,-2.2525117,0.1688385,0.93778396,-0.34968507,-0.7360317,0.56542516
1592044332653,-0.37531364,2.7300205,1.1775537,-0.34957638,-0.72661155,0.5751794
1592044332674,0.8112881,4.587225,1.5101833,-0.35062987,-0.71738183,0.5845853
1592044332694,1.6881466,5.7261953,1.8689339,-0.35202652,-0.7075648,0.5951435
1592044332716,1.3954079,6.1041965,1.7023067,-0.3509252,-0.7010342,0.6040479
1592044332736,1.6318638,6.0826406,2.027142,-0.34719908,-0.69494706,0.6140643
1592044332756,1.4849551,6.203871,1.7841879,-0.34303734,-0.6906158,0.6217591
1592044332778,1.5886128,5.776349,2.3196092,-0.33717278,-0.6823863,0.6341376
1592044332798,1.1970832,3.9156713,1.4767509,-0.33817807,-0.67831755,0.63713545
1592044332820,-1.2352676,-0.15519619,-2.6214943,-0.3423655,-0.67421365,0.6370975
1592044332842,-2.571001,-5.180134,-0.6378653,-0.33942935,-0.6753063,0.6379432
1592044332862,1.099191,-5.5170097,2.8902073,-0.34074748,-0.6770226,0.63589644
1592044332882,0.7932091,-12.116587,-8.139153,-0.34558526,-0.6803566,0.6300159
1592044332906,5.41867,-12.9693365,-4.5683208,-0.3532951,-0.67804605,0.62767595
1592044332925,6.524801,-4.3047485,-0.9048649,-0.36997062,-0.6695274,0.62215674
1592044332944,5.4882584,-2.462329,0.3045497,-0.37638366,-0.66372716,0.62020344
1592044332966,1.7823036,-3.859868,1.4847677,-0.3708316,-0.6608089,0.6241314
1592044332984,-2.370916,-2.1368504,-1.6166841,-0.36163935,-0.6559867,0.6328272
1592044333006,-4.2327824,1.4653692,-3.5375502,-0.3473884,-0.65269035,0.64449644
1592044333027,-1.5644577,5.2341185,-3.5328383,-0.32990226,-0.6523403,0.6561527
1592044333049,0.83384335,5.9090757,-1.8278244,-0.32754922,-0.6541191,0.6560179
1592044333070,1.1111786,6.627099,-0.084650934,-0.3380556,-0.65565187,0.64767945
1592044333091,0.8841497,7.1034727,0.81525743,-0.35768166,-0.6560472,0.632323
1592044333111,-0.94544137,6.14554,-1.2202854,-0.38744372,-0.65560246,0.6066261
1592044333133,-3.3583622,3.7905579,-4.3089128,-0.40257454,-0.66066796,0.58801997
1592044333153,-4.725256,-0.19891071,-3.9459271,-0.40163592,-0.6753673,0.5780614
1592044333176,-1.6348528,-3.3490849,6.5800424,-0.39191747,-0.6948801,0.5757628
1592044333192,1.5093904,-6.6898117,6.3619056,-0.39338523,-0.7001652,0.574069
1592044333216,3.6974723,-9.902762,-3.5464587,-0.39513034,-0.7051639,0.5732549
1592044333235,0.85065246,-2.434246,-2.824997,-0.39235082,-0.70834666,0.5724691
1592044333257,-0.5492418,-0.25830936,0.44842243,-0.38779685,-0.7076514,0.57574177
1592044333279,-0.6117585,0.8864527,0.97053885,-0.3824731,-0.7042419,0.58189666
1592044333301,-0.9302168,1.9529657,1.5669427,-0.3749255,-0.7022096,0.5871699
1592044333321,-0.84738946,3.451787,2.3349974,-0.3697299,-0.70171875,0.5900098
1592044333340,0.041693926,4.8096027,2.1080675,-0.3642826,-0.701017,0.5939776
1592044333363,1.5745461,6.083765,1.6067688,-0.35598245,-0.7003902,0.6002463
1592044333384,2.2969348,6.073395,1.8574562,-0.35074365,-0.70015556,0.6037595
1592044333405,1.8226811,4.213434,2.326796,-0.341727,-0.70082843,0.6078066
1592044333424,0.4326899,1.121872,2.9616475,-0.33398345,-0.7019209,0.6106476
1592044333446,-1.4228553,-2.3354235,2.4659095,-0.32619074,-0.7025253,0.61466676
1592044333468,-3.842999,-6.167446,1.3722094,-0.3131043,-0.7021025,0.62409204
1592044333488,-6.5834637,-11.000634,-1.9278643,-0.28100327,-0.698069,0.6490895
1592044333509,-0.6796615,-8.073136,-9.039009,-0.25686282,-0.6911651,0.66960406
1592044333531,1.9503694,-4.787406,-3.7158768,-0.25571328,-0.6871727,0.67389315
1592044333552,2.993298,-3.984542,0.116140544,-0.27318457,-0.68276805,0.66875446
1592044333572,3.5601823,-2.9213305,-0.17657697,-0.2951532,-0.67648476,0.6608653
1592044333594,3.3682532,-1.1495523,-0.36451244,-0.30023295,-0.67423815,0.6589668
1592044333613,0.6791353,3.3875313,-0.38709038,-0.29967046,-0.66978085,0.660441
1592044333634,-0.084109664,5.230466,-1.4282665,-0.29318866,-0.6695107,0.6627872
1592044333656,-0.3818574,6.73921,-1.4630673,-0.28670457,-0.67247516,0.6624732
1592044333676,-0.41103172,7.1787643,-0.5818861,-0.28732523,-0.6786993,0.65508133
1592044333698,-0.35211432,7.495556,-0.28122652,-0.29837057,-0.6841518,0.6423998
1592044333719,-1.1828021,6.914201,0.44554567,-0.31329653,-0.69041806,0.62606853
1592044333738,-2.1428921,3.4653654,0.49742794,-0.32745197,-0.69789267,0.6085706
1592044333761,-4.962916,-3.0775166,0.24233675,-0.3337536,-0.71102583,0.59278584
1592044333781,-6.01271,-7.5099173,3.416118,-0.32975775,-0.71903086,0.59093076
1592044333804,-5.3429523,-13.904606,0.68378377,-0.32454538,-0.726926,0.59327334
1592044333819,-1.6336274,-12.935556,-3.8798447,-0.32212317,-0.7270632,0.5978866
1592044333843,-0.5802598,-3.439827,-4.2892027,-0.32569683,-0.7245015,0.5984726
1592044333866,1.2210679,0.3275118,1.2688532,-0.3370987,-0.71711546,0.5976688
1592044333886,1.1184511,2.1308517,3.0573254,-0.34982383,-0.7051618,0.6002562
1592044333905,1.6241331,3.941883,3.195625,-0.3633525,-0.6933968,0.6011171
1592044333927,1.1822083,5.6358585,2.9210174,-0.37465933,-0.6830687,0.60118365
1592044333949,1.1076133,6.175885,2.1985817,-0.37940326,-0.6761428,0.6032802
1592044333969,1.6860826,6.015156,1.8244021,-0.3784559,-0.66666937,0.6121003
1592044333990,1.0553635,4.151347,1.9511015,-0.3711584,-0.6575885,0.6245847
1592044334014,0.1536237,2.2239695,0.41159105,-0.36291352,-0.6474206,0.6369173
1592044334027,-0.5535885,1.4668293,-0.2783119,-0.36122778,-0.645078,0.63904655
1592044334051,-1.2522216,-1.726224,-2.7315183,-0.35180053,-0.64433813,0.64570755
1592044334073,0.6580826,-5.114209,-4.081304,-0.331564,-0.6475792,0.65868706
1592044334095,-1.0482315,-16.553131,-4.797726,-0.31757346,-0.6529023,0.6642209
1592044334114,3.23308,-6.239724,-6.531398,-0.31556624,-0.6541882,0.6653698
1592044334135,2.9309306,1.1009979,-2.937874,-0.32264334,-0.6554992,0.6605086
1592044334157,2.6318607,-1.4066076,2.0595577,-0.3380329,-0.66012454,0.64639467
1592044334180,1.9025542,-4.8642197,1.0136907,-0.34785634,-0.662813,0.63612676
1592044334199,1.4465053,-1.0220776,-0.56400704,-0.3475455,-0.66420007,0.6337448
1592044334222,0.106552124,2.1022892,-0.6721407,-0.34095696,-0.6672539,0.6339747
1592044334237,-0.60193086,4.1895123,-0.6667048,-0.336202,-0.67260677,0.6312163
1592044334261,-0.9905665,5.6877193,-1.0111741,-0.3369102,-0.6811278,0.62263983
1592044334283,-1.3857896,6.451494,-2.1557515,-0.34076294,-0.6898731,0.6125655
1592044334304,-2.9787607,6.110854,-3.5634842,-0.34496033,-0.70120436,0.6001808
1592044334323,-0.5071509,3.5196753,7.4959188,-0.35301685,-0.71102047,0.58634555
1592044334345,0.2722174,1.5492468,4.538553,-0.37276918,-0.7169989,0.5645148
1592044334367,-0.7756685,-2.9526834,1.6151788,-0.3725114,-0.725516,0.5565403
1592044334387,0.6187682,-5.0985947,1.5271122,-0.35638422,-0.731419,0.5663915
1592044334408,2.1701207,-5.7878485,3.3117013,-0.3427558,-0.73292977,0.57771045
1592044334430,-1.52778,-7.7596455,1.1461048,-0.33878428,-0.73131084,0.583578
1592044334450,-6.211071,-7.3082304,-0.9528978,-0.3366481,-0.7262559,0.59051716
1592044334470,-4.1591787,-2.6318502,0.398376,-0.33309212,-0.7145165,0.60476774
1592044334491,-2.0675395,0.5685682,0.3508048,-0.3350731,-0.7038106,0.6126708
1592044334514,-0.06687617,3.0810184,0.31795895,-0.34238708,-0.6923752,0.6172716
1592044334534,2.474835,4.7994833,1.3668318,-0.35498837,-0.6781918,0.6205163
1592044334553,3.6730223,5.1722927,1.8805348,-0.36435947,-0.6694064,0.620327
1592044334575,3.4121175,4.9337587,2.3189158,-0.36905798,-0.6638954,0.61940557
1592044334598,1.2662133,3.9102917,2.361035,-0.36767694,-0.6571031,0.62284184
1592044334617,0.5453309,3.2420692,1.1325204,-0.36427653,-0.6521673,0.6277341
1592044334639,-0.97976995,1.305378,0.11555886,-0.35548124,-0.6446094,0.6369882
1592044334657,-2.3872495,-1.2894545,-3.2680428,-0.34574148,-0.6412761,0.6448406
1592044334678,-1.9007255,-5.385956,-7.366669,-0.31953022,-0.64266676,0.6616998
1592044334701,-2.4348648,-12.122651,-6.134241,-0.30641317,-0.64988166,0.6662242
1592044334720,2.986185,-6.317542,-5.567329,-0.3111272,-0.6534339,0.6633304
1592044334742,6.8458233,0.1237278,-2.7201815,-0.3186311,-0.65405655,0.66042167
1592044334765,6.288249,-0.48074436,0.47356606,-0.3272841,-0.66043377,0.6498556
1592044334786,1.9763951,-1.6373472,4.1186857,-0.3318757,-0.66761047,0.63805264
1592044334806,-1.9203676,-1.2541094,2.162706,-0.33732268,-0.6692618,0.6288847
1592044334826,-2.651626,1.3026018,-1.2871546,-0.34102038,-0.66748273,0.6250888
1592044334848,-3.3500202,3.115903,-2.827578,-0.33446106,-0.6688141,0.62812716
1592044334866,-2.496289,3.4431314,-3.186904,-0.32846704,-0.6726725,0.6304925
1592044334890,1.0187277,3.3554134,-0.91706955,-0.32822487,-0.681605,0.62622756
1592044334909,1.9750872,4.7663918,0.34928632,-0.3408678,-0.68754363,0.613455
1592044334930,1.886417,5.4243336,0.45940828,-0.3601107,-0.69230753,0.5948695
1592044334953,2.0008097,4.114271,0.5438409,-0.38234407,-0.70060974,0.5689451
1592044334973,2.5073571,-0.12538528,4.892374,-0.38804746,-0.71015495,0.5560189
1592044334993,0.9937278,-2.5380373,6.0996246,-0.3808515,-0.7207168,0.5523527
1592044335018,-1.3014228,-5.5535316,-4.057535,-0.36115542,-0.73767084,0.5528613
1592044335039,-0.76957965,-7.874155,0.048243284,-0.34157893,-0.7544009,0.5517749
1592044335059,-4.6344547,-4.579406,-1.6898322,-0.33332908,-0.7662165,0.54484254
1592044335083,-3.8483639,-1.5020752,-0.6759002,-0.3321275,-0.76755613,0.54463726
1592044335101,-2.932998,-1.9545097,-0.53776145,-0.3310002,-0.7635738,0.5504766
1592044335123,-0.50274324,-1.0797043,0.2542417,-0.33117723,-0.75374585,0.5616274
1592044335143,0.1053803,0.40712833,1.1237707,-0.33078218,-0.7461075,0.57030773
1592044335165,0.007245064,1.9108896,2.4288385,-0.32986295,-0.731458,0.5862346
1592044335185,-0.6579621,2.4298067,2.6451523,-0.3301765,-0.72161365,0.5957977
1592044335206,-3.0785482,0.36723232,1.6751728,-0.3343691,-0.70434254,0.61024016
1592044335229,0.2733934,3.4088478,0.36912286,-0.34435335,-0.6864832,0.62410486
1592044335250,2.2785199,5.6964436,0.71795297,-0.3477341,-0.6769579,0.6334712
1592044335269,0.16459322,3.386817,0.024895787,-0.34318802,-0.66399217,0.6516847
1592044335294,-1.052625,1.8922815,-1.1203122,-0.3356955,-0.6526104,0.670049
1592044335314,-0.43042278,2.409711,-0.53149474,-0.3302521,-0.64650345,0.68070227
1592044335335,1.8027074,4.2411604,-0.48158157,-0.31976745,-0.63668054,0.6968142
1592044335354,1.0445967,0.80781937,-3.5052667,-0.3071422,-0.6311974,0.70831
1592044335376,1.1674795,-4.021596,-4.2596903,-0.2944334,-0.6304788,0.71545315
1592044335397,0.55561924,-12.0754175,-5.3758674,-0.2891114,-0.6353337,0.7139152
1592044335417,2.3436413,-7.553193,-0.21748129,-0.29571742,-0.64572906,0.7009393
1592044335439,3.0756717,-1.648653,0.39312932,-0.30667132,-0.65300286,0.6871889
1592044335460,2.7723043,-0.21525955,1.1108208,-0.31670383,-0.6599509,0.6724227
1592044335482,1.3180764,-0.15330029,1.2875738,-0.32637158,-0.6663306,0.6553949
1592044335499,-0.70321083,-0.72175884,1.7825062,-0.33454567,-0.6677195,0.64474607
1592044335520,-3.6955657,0.5694723,0.400483,-0.36000538,-0.66376966,0.6215274
1592044335542,-3.529464,3.2277365,-1.5808011,-0.38663426,-0.6570534,0.5988977
1592044335567,-4.0970917,3.0184689,-1.2298338,-0.39863482,-0.6530671,0.58849347
1592044335586,-1.7934068,3.2750711,1.434953,-0.39952847,-0.65415233,0.5894467
1592044335605,2.7717957,3.2528753,1.0128455,-0.40801582,-0.65568596,0.58655053
1592044335627,3.4973927,1.320858,1.5028753,-0.4183536,-0.6578835,0.5824618
1592044335650,1.2783856,-1.3645973,3.352679,-0.4199221,-0.6624372,0.58363926
1592044335670,-2.5713263,-2.5040035,1.6783042,-0.41670868,-0.6637227,0.58761907
1592044335689,-7.4355173,-3.4676723,-2.5271816,-0.40450758,-0.66590166,0.5982399
1592044335713,-7.196556,-2.4571838,-2.905274,-0.38387567,-0.67216873,0.61361593
1592044335733,-3.636415,-1.3820629,0.057959914,-0.35983416,-0.6792456,0.6289605
1592044335753,-2.1262891,-1.4817133,2.5201783,-0.33598533,-0.68271565,0.6436462
1592044335774,-2.9271843,-0.7951441,2.8997917,-0.31849924,-0.6746286,0.6634447
1592044335796,-0.085725546,-0.5399542,-0.3686301,-0.3217476,-0.6588818,0.67769384
1592044335815,1.6015475,0.2931261,-3.0636396,-0.33730787,-0.64335483,0.68399537
1592044335837,3.1401117,-0.2370863,-2.7833142,-0.35375404,-0.633955,0.68290657
1592044335859,1.879888,0.028079033,2.5516605,-0.36756894,-0.6277397,0.67844474
1592044335886,1.1870937,0.72713184,1.6715584,-0.37906256,-0.6176829,0.6765089
1592044335906,1.9075594,1.1972647,0.0029379427,-0.38567072,-0.6067149,0.6781308
1592044335928,1.505924,1.190114,1.3502356,-0.39172024,-0.594671,0.6790972
1592044335947,1.4555161,-0.23599434,1.212089,-0.39938807,-0.587354,0.6747954
1592044335969,3.2822595,-0.9971628,0.456717,-0.41195852,-0.56958216,0.6685633
1592044335991,4.3028483,-1.2860994,1.9182297,-0.41912475,-0.54565704,0.66393274
1592044336011,3.229698,-2.2676,-3.913049,-0.42304823,-0.5208575,0.6562134
1592044336032,1.495779,-1.8701401,-8.878367,-0.422546,-0.5061821,0.6434596
1592044336054,-0.21769029,-0.85170364,-1.0909995,-0.40251616,-0.5148228,0.64028186
1592044336075,-0.72198397,-0.8391714,3.0446815,-0.37967902,-0.52528626,0.64043146
1592044336096,0.45031548,-1.4649744,0.61838424,-0.36991915,-0.5244544,0.6353179
1592044336116,0.81634593,-1.4750252,-1.705296,-0.36064148,-0.52297187,0.6300393
1592044336138,1.3879607,0.9843035,0.8338101,-0.34946212,-0.525625,0.6219943
1592044336159,0.34581065,0.116065025,0.43172812,-0.34513128,-0.5273858,0.61239547
1592044336178,0.8622552,-3.4386768,-0.8063488,-0.34002617,-0.53014004,0.6011868
1592044336200,1.5506119,-3.9890585,-2.2244806,-0.33772877,-0.52211964,0.58611405
1592044336222,0.84745705,-3.8631315,0.154778,-0.33351618,-0.51325464,0.5748985
1592044336242,-2.0976045,-4.3602896,1.238523,-0.3216773,-0.50973374,0.56901604
1592044336264,-0.84887195,-0.78965855,1.6326082,-0.31188285,-0.50333804,0.56736356
1592044336284,-0.80611086,-1.3880882,-0.8759067,-0.3099268,-0.48572877,0.5653541
1592044336306,-0.4746518,-0.31141186,0.44466853,-0.30632955,-0.47327173,0.5656699
1592044336327,-1.965092,-0.36700058,-3.2973888,-0.30036187,-0.45921215,0.5674098
1592044336348,-3.4010656,-2.6473608,-4.3304625,-0.29681176,-0.449032,0.5695221
1592044336368,-2.4949806,-3.2306204,0.58849716,-0.29484573,-0.4444219,0.5705888
1592044336390,-0.77976465,-2.2324648,2.694674,-0.2899549,-0.43027392,0.57200027
1592044336411,-0.0016975403,-2.9350328,-2.509704,-0.28949186,-0.40723985,0.57001704
1592044336432,3.6766934,-1.7831736,-1.3915882,-0.2874358,-0.38945654,0.5624767
1592044336452,2.2418332,-0.0015211105,-0.8523822,-0.27669254,-0.3816882,0.5516958
1592044336475,0.78090715,0.17603779,0.19604445,-0.266996,-0.37558982,0.52997124
1592044336494,1.3588281,1.3947659,0.8139887,-0.26566216,-0.3684008,0.5080255
1592044336516,2.468202,2.5364232,1.4320478,-0.2619455,-0.36324143,0.48718646
1592044336536,4.182556,3.4423852,2.8479748,-0.25526705,-0.35858202,0.46637073
1592044336558,4.7289867,5.084587,2.6344724,-0.2422654,-0.34716654,0.43484634
1592044336578,1.924078,4.0019994,1.6125474,-0.22628123,-0.33924797,0.4043348
1592044336599,-0.6398368,2.6907363,2.4736667,-0.20588033,-0.3356106,0.3729994
1592044336622,-0.912611,1.8862653,3.235478,-0.17728642,-0.32124782,0.33499333
1592044336642,-0.9993329,3.400535,0.96301174,-0.14950636,-0.2975879,0.30488512
1592044336663,-1.5808272,3.8014529,0.22356415,-0.11844774,-0.27536467,0.27465364
1592044336683,-3.7432957,1.664767,-1.417059,-0.08600913,-0.26038894,0.24512742
1592044336705,-4.8339076,0.59869456,-1.9759054,-0.056075305,-0.2536296,0.21895184
1592044336728,-3.7356157,-0.48262858,-0.6317978,-0.023506368,-0.2435827,0.19143528
1592044336755,-1.7957785,0.038691193,-1.3447714,0.013478198,-0.20697036,0.1678503
1592044336763,-2.0274777,-0.2196796,-2.1692896,0.020034926,-0.19982736,0.16460888
1592044336788,-3.1155427,-1.9425166,-4.5801315,0.050917294,-0.17740066,0.14922456
1592044336809,-3.0040054,-2.0482204,-4.519106,0.06933104,-0.17392069,0.14088896
1592044336830,-2.4512007,-1.6331109,-4.0961046,0.08005366,-0.17113653,0.1346427
1592044336850,-1.9806488,-1.3281957,-4.2626467,0.08023932,-0.16811195,0.13122323
1592044336871,-1.928163,-1.7538903,-2.860199,0.07491906,-0.17213938,0.12808272
1592044336892,0.8552017,-1.9572632,14.855938,0.07173478,-0.19540586,0.12368168
1592044336915,1.2343662,-3.680057,-0.6338167,0.08007471,-0.1897785,0.11643336
1592044336936,1.4345651,-1.1867467,1.7444696,0.08844559,-0.19979215,0.10293073
1592044336958,2.4711542,-0.87039196,-0.44882107,0.105194226,-0.21748747,0.07829671
1592044336977,1.7366543,-1.3668913,1.4207268,0.11683124,-0.22751798,0.053673685
1592044336999,2.8711095,-2.7178519,0.60297203,0.13967739,-0.23343629,0.006657218
1592044337019,2.495142,-1.7514737,0.39558506,0.15567397,-0.23164418,-0.02957894
1592044337040,1.1308877,-0.3166976,-0.46964645,0.1717398,-0.21977882,-0.060404427
1592044337063,1.0792542,0.61833143,-0.3440237,0.1911447,-0.20069173,-0.08448063
1592044337082,0.3664043,1.3272095,0.27969456,0.21902716,-0.17780755,-0.10748373
1592044337104,-0.054596663,0.8430128,-0.52820015,0.24178003,-0.16503927,-0.12020416
1592044337124,0.23294854,0.9635339,-1.1953425,0.2649782,-0.1530981,-0.12687877
1592044337148,0.41516662,0.21442413,-0.8764825,0.2919645,-0.13541226,-0.12812725
1592044337168,-0.17814481,-0.067083836,-0.9977751,0.3110649,-0.12373502,-0.1259894
1592044337189,0.1454314,-1.0343251,-0.74114084,0.32744485,-0.11695767,-0.12434161
1592044337210,0.48334634,-1.3162465,-0.35226917,0.34300354,-0.11161418,-0.12268702
1592044337233,0.9299189,-1.5342159,-0.36258602,0.3606091,-0.10436767,-0.12039101
1592044337253,0.42442936,-1.1040306,-0.7457657,0.37415177,-0.09514465,-0.11891611
1592044337272,0.20221704,-1.1353745,-0.22384167,0.3865851,-0.08550394,-0.11898876
1592044337294,0.47702038,-0.7192626,0.2167077,0.39894184,-0.07649766,-0.12023491
1592044337317,0.5339515,-1.0269008,0.3305359,0.41532716,-0.06585592,-0.121297784
1592044337336,0.41250965,-0.5886946,0.38529682,0.42873442,-0.056650076,-0.12118251
1592044337358,0.094629765,0.07568407,-0.3796053,0.44326228,-0.047693454,-0.12030484
1592044337378,0.18965009,0.11767292,-1.2969799,0.45784852,-0.042273264,-0.11939007
1592044337400,-0.52489495,1.1227407,-1.7854013,0.47088775,-0.037284248,-0.1184799
1592044337420,0.40382832,0.08005524,-0.91563654,0.4762387,-0.029320788,-0.116135865
1592044337441,-0.49522984,0.4347906,-0.34092808,0.47467694,-0.024340948,-0.11426397
1592044337463,-0.8614876,0.13797379,-1.1962342,0.47205773,-0.021726668,-0.116881095
